frame,accel_x,accel_y,accel_z,gyro_x,gyro_y,gyro_z,prob_0,prob_1,prob_2,prob_3,prob_4,correct_answer,model_prediction
0,-0.0140695395,0.02079201,-1.0331682,0.00106422522,-0.00260143937,0.00134777848,0.8065981,0.54687846,0.2792605,0.21243425,0.19723189,0,0
1,-0.0138044292,0.02255567,-1.03416812,0.00106422522,-0.00228611333,0.00106422522,0.9508189,0.6456507,0.1256944,0.054897163,0.044821847,0,0
2,-0.0120884553,0.02444564,-1.032711,0.00110514031,-0.001826263,0.00212845043,0.98314255,0.70317096,0.06610167,0.019035466,0.0144229075,0,0
3,-0.0105399014,0.0260521919,-1.0348295,0.00106422522,-0.00202772114,0.000709483458,0.99118805,0.7139636,0.045007598,0.011019047,0.008119868,0,0
4,-0.009860956,0.0291918758,-1.03244317,0.000354741729,-0.00244961563,0.0006607639,0.9942546,0.7024142,0.03549176,0.008459966,0.006256886,0,0
5,-0.0101229222,0.0268204678,-1.02660215,0.00106422522,-0.0022355055,0.00212845043,0.995818,0.6801413,0.030185217,0.0074004917,0.005622244,0,0
6,-0.0136282137,0.0252161976,-1.029538,0.000354741729,-0.00216413545,0.00141896692,0.9967528,0.6530267,0.026895644,0.0068652895,0.0054415152,0,0
7,-0.0141456025,0.025658004,-1.03491116,0.000118247241,-0.00284982868,0.00106422522,0.9973681,0.6249985,0.024709806,0.0065265764,0.0054477328,0,0
8,-0.0143180648,0.0238521472,-1.02758753,-0.0003123057,-0.00236890977,0.00104192179,0.9978003,0.59847635,0.023139423,0.006264376,0.0055374037,0,0
9,-0.018607324,0.02097155,-1.02758777,-0.00106422522,-0.00185386185,0.00106422522,0.9981167,0.57449317,0.021931643,0.0060456423,0.005659425,0,0
10,-0.0190605149,0.01952307,-1.03377283,-0.000489276659,-0.00203692075,-0.00106422522,0.99835545,0.55325645,0.020952329,0.0058617303,0.005790326,0,0
11,-0.0185605362,0.020830607,-1.03306758,0.00106422522,-0.00209794031,-0.0009868093,0.9985407,0.53453726,0.0201241,0.0057080127,0.00592359,0,0
12,-0.0192076787,0.0243589,-1.03397179,-0.00106422522,-0.00176353857,0.00106422522,0.99868727,0.5179364,0.019409964,0.005583329,0.006055659,0,0
13,-0.0153543828,0.0245584343,-1.02906477,-0.00189082127,-0.00129732967,0.00106422522,0.9988056,0.503139,0.018779527,0.005481026,0.006188728,0,0
14,-0.01390719,0.022346301,-1.02775466,-0.00106422522,-0.00185141014,0.000111612921,0.9989027,0.48986086,0.018218784,0.0053967317,0.006318567,0,0
15,-0.0178193245,0.0222599655,-1.03106153,9.918662e-06,-0.00203610375,-0.00106422522,0.9989834,0.47785598,0.017720755,0.0053273845,0.006440507,0,0
16,-0.019774409,0.021417385,-1.03004789,0.00106422522,-0.00138818473,0.00106422522,0.99905145,0.46691397,0.017277613,0.0052695284,0.0065582534,0,0
17,-0.021565428,0.0222758483,-1.02417612,0.000354741729,-0.0011722116,0.002248379,0.9991095,0.45685488,0.016879477,0.0052212276,0.00667565,0,0
18,-0.0226507168,0.021097159,-1.0227071,0.00106422522,-0.00110022072,0.00212845043,0.9991595,0.44758174,0.016521227,0.0051803123,0.006790135,0,0
19,-0.0210593548,0.02037874,-1.0264492,0.000354741729,-0.00107622368,0.00141896692,0.99920267,0.4390011,0.016202264,0.005146335,0.0068992726,0,0
20,-0.0184130147,0.0230689552,-1.02932417,0.000295971346,-0.00142296648,0.00106422522,0.9992403,0.43102548,0.01591733,0.0051175077,0.0070026712,0,0
21,-0.0155777754,0.0221753288,-1.03256118,0.00106422522,-0.00153854734,-0.00017533655,0.9992733,0.4236102,0.015661804,0.005091918,0.0071012545,0,0
22,-0.0149582168,0.0226912554,-1.03071058,0.000354741729,-0.00106422522,-0.00212845043,0.99930257,0.41667423,0.015429803,0.0050689965,0.0071978346,0,0
23,-0.0144261764,0.02563016,-1.02862883,0.000118247241,-0.0009048762,-0.000709483458,0.9993288,0.41014445,0.015219121,0.0050488263,0.007291804,0,0
24,-0.0152253918,0.0246566683,-1.02874863,3.94157469e-05,-0.00106422522,-0.00130071968,0.9993523,0.40402055,0.0150273265,0.005030516,0.0073829046,0,0
25,-0.0193980467,0.02400665,-1.02878857,0.0003911372,-0.00141896692,-0.00106422522,0.99937344,0.39827234,0.014852188,0.0050134514,0.007469462,0,0
26,-0.01964961,0.022976175,-1.02831364,0.00106422522,-0.00189195585,-0.000103223625,0.9993926,0.3928782,0.014692592,0.0049974923,0.007552668,0,0
27,-0.0146878911,0.0226326827,-1.028318,-0.000354741729,-0.00319267553,0.00106422522,0.9994098,0.3877923,0.01454863,0.0049835322,0.0076339985,0,0
28,-0.0127084637,0.0230064671,-1.02994716,-0.00106422522,-0.00319672422,0.00106422522,0.9994254,0.38299018,0.014417778,0.004970535,0.007710452,0,0
29,-0.0144900605,0.023293823,-1.02707231,-0.00115982711,-0.00212845043,0.0001942207,0.99943984,0.37845805,0.014294935,0.004957124,0.007784041,0,0
30,-0.0144328848,0.0194833577,-1.022045,-0.00106422522,-0.00106422522,-0.00106422522,0.9994531,0.37419853,0.014178543,0.0049431827,0.007857428,0,0
31,-0.0152276279,0.0147952335,-1.01955545,-0.000245136325,-0.000709483458,-0.001410485,0.9994654,0.37019953,0.014070115,0.004929405,0.007927285,0,0
32,-0.0164691042,0.0174642969,-1.02377117,0.00106422522,-0.00130071968,-0.00106422522,0.9994766,0.36644027,0.013972387,0.004916967,0.007986913,0,0
33,-0.0172084514,0.0235623177,-1.02794325,0.000354741729,-0.00114305678,0.000354741729,0.9994869,0.3628836,0.013884832,0.004905941,0.008039353,0,0
34,-0.01810594,0.02461843,-1.02982223,0.000118247241,-0.00179998577,0.0008277307,0.9994964,0.3595378,0.013803852,0.0048945867,0.008088782,0,0
35,-0.0156381782,0.0231801029,-1.03272724,0.000478205126,-0.00237370376,0.00106422522,0.99950504,0.35639864,0.013729911,0.0048828055,0.008134429,0,0
36,-0.0131879868,0.0236772224,-1.02946377,0.00106422522,-0.00212845043,0.000354741729,0.9995132,0.35342988,0.013659592,0.0048702294,0.008179025,0,0
37,-0.01416162,0.0233546477,-1.03065455,0.000354741729,-0.00240666419,0.000118247241,0.9995207,0.35061592,0.013594652,0.0048580165,0.008219615,0,0
38,-0.014974446,0.0242236853,-1.035446,0.0008277307,-0.00319267553,3.94157469e-05,0.99952763,0.3479699,0.013536014,0.004845971,0.0082529485,0,0
39,-0.0163847115,0.0245133638,-1.03411353,0.0009853938,-0.00177370862,-0.000391339359,0.99953413,0.3454707,0.013480704,0.0048333216,0.00828448,0,0
40,-0.0168548,0.0265630484,-1.0297631,0.001037948,-0.0020102032,-0.00106422522,0.9995403,0.3430992,0.013426461,0.0048205038,0.008316388,0,0
41,-0.0144073293,0.0270835161,-1.03010333,0.00105546613,-0.00279851817,-0.000354741729,0.9995461,0.3408544,0.013376415,0.004808399,0.008346109,0,0
42,-0.0150563493,0.021885911,-1.03282082,0.00106422522,-0.00306128967,-0.00106422522,0.9995514,0.33875653,0.013331393,0.0047963527,0.008372254,0,0
43,-0.0162492525,0.0188512933,-1.03405225,0.000354741729,-0.00279413839,-0.000354741729,0.99955624,0.33677515,0.013291281,0.004784654,0.00839485,0,0
44,-0.0168096479,0.0212577228,-1.032998,-0.0004052371,-0.00270508812,-0.000118247241,0.9995609,0.33488485,0.013253518,0.004773369,0.008415202,0,0
45,-0.01829853,0.0295468438,-1.03476238,-0.00106422522,-0.00267540477,-3.94157469e-05,0.99956524,0.3330724,0.013217664,0.0047628107,0.008430705,0,0
46,-0.0187948216,0.0311705619,-1.03274632,-0.00141896692,-0.00231076847,-1.31385823e-05,0.9995694,0.33135906,0.013181821,0.0047516744,0.008447387,0,0
47,-0.0197740551,0.0282938331,-1.02605212,-0.00106422522,-0.002189223,0.000385785155,0.99957347,0.3297383,0.013144749,0.0047396384,0.008467535,0,0
48,-0.0174963,0.0291252881,-1.02675045,-0.00131991215,-0.00108448276,0.00106422522,0.9995772,0.3282006,0.013111346,0.0047287485,0.0084839715,0,0
49,-0.016411528,0.0263099913,-1.02861083,-0.00212845043,-0.000361494254,0.0004682228,0.9995806,0.32676882,0.013081461,0.0047183353,0.008497545,0,0
50,-0.0181658212,0.0239067152,-1.02955639,-0.000709483458,-0.00106422522,-0.00106422522,0.99958384,0.3254537,0.013052871,0.004707244,0.008506648,0,0
51,-0.01679746,0.0209897384,-1.03068542,-0.00106422522,-0.00212125247,-0.00141896692,0.99958676,0.32423186,0.013027551,0.0046966067,0.008513827,0,0
52,-0.0145509765,0.015785642,-1.03350317,-0.00132500846,-0.00319267553,-0.000472988962,0.9995894,0.32308918,0.013006832,0.004686544,0.008518719,0,0
53,-0.0168945957,0.0158413071,-1.03655827,-0.00106422522,-0.00268794852,0.0005518205,0.9995918,0.32199576,0.012989464,0.00467687,0.008518448,0,0
54,-0.0194661673,0.0235096011,-1.03790224,-0.0003547418,-0.00106422522,0.0008934236,0.9995943,0.32094008,0.012972529,0.0046673534,0.008514088,0,0
55,-0.0172309112,0.0255774185,-1.03265369,0.00212845043,-0.00319267553,0.000297807885,0.99959666,0.31996047,0.012951884,0.0046565398,0.008514249,0,0
56,-0.0155092627,0.0228487235,-1.03204346,0.00250297529,-0.00402583648,0.000454011024,0.9995989,0.31903684,0.012932599,0.0046461704,0.008515384,0,0
57,-0.0149353789,0.0227529611,-1.03460693,0.00106422522,-0.00319267553,0.00157030392,0.999601,0.318143,0.01291733,0.0046372307,0.008513745,0,0
58,-0.0163716879,0.019465832,-1.03318274,0.000354741729,-0.00212845043,0.00158765994,0.999603,0.31729692,0.012902381,0.004628081,0.008513119,0,0
59,-0.0163621772,0.0191839244,-1.03466117,0.000118247233,-0.00185322866,0.00106422522,0.99960476,0.31650436,0.01288833,0.0046191784,0.008509955,0,0
60,-0.0160334855,0.0220196415,-1.0333637,0.000748899241,-0.00212845043,0.000354741729,0.99960655,0.31575754,0.012873409,0.00461011,0.008505663,0,0
61,-0.0170632452,0.0216627959,-1.03130352,0.00106422522,-0.00177370862,0.000421623641,0.9996083,0.3150508,0.012857924,0.004600942,0.008502182,0,0
62,-0.0175692588,0.0217066091,-1.02687323,0.000323597167,-0.0020102032,0.00106422522,0.99961,0.31436524,0.012841751,0.0045922245,0.008501421,0,0
63,-0.0159475654,0.0220467355,-1.02409446,-0.00106422522,-0.00244377647,-0.000354741729,0.9996117,0.3137094,0.012825156,0.004584275,0.008502464,0,0
64,-0.0144304382,0.0234621931,-1.02284276,-0.000354741729,-0.00187881722,-0.00106422522,0.9996133,0.31309062,0.012808552,0.004576488,0.008501699,0,0
65,-0.0173426978,0.0216553658,-1.02519238,-0.000118247241,-0.00133575592,-0.0003738715,0.9996147,0.3125171,0.012794199,0.0045690737,0.00849713,0,0
66,-0.0170113686,0.0184489246,-1.03134668,0.000305561232,-0.001509477,0.00106422522,0.99961597,0.3120072,0.012784422,0.004562212,0.008487631,0,0
67,-0.0152733205,0.0191704761,-1.03095675,0.00106422522,-0.00192212593,0.00106422522,0.99961716,0.3115354,0.012775241,0.00455513,0.008477785,0,0
68,-0.0161588155,0.0205503162,-1.03082669,-0.000354741729,-0.00205967552,0.00016891741,0.99961823,0.31107497,0.012766006,0.0045484575,0.0084685385,0,0
69,-0.0172677822,0.02393995,-1.02980673,-0.00106422522,-0.00175078365,-0.00106422522,0.99961936,0.31062412,0.012755387,0.004541802,0.0084594395,0,0
70,-0.0181257185,0.0275112335,-1.02914131,-0.000354741729,-0.00164781976,-0.000354741729,0.9996205,0.3101867,0.012743935,0.0045350078,0.008449653,0,0
71,-0.0169468541,0.02821338,-1.028594,-0.000118247241,-0.00161349855,-0.000118247241,0.99962157,0.30977482,0.0127326725,0.0045283246,0.008440872,0,0
72,-0.0163911376,0.0271453466,-1.02629566,-0.000458814728,-0.00106422522,-3.94157469e-05,0.99962264,0.30938002,0.012721301,0.0045217555,0.008434119,0,0
73,-0.015880378,0.02499897,-1.02797091,-0.00106422522,-0.00167035533,-1.31385823e-05,0.99962354,0.30901313,0.012711501,0.0045157224,0.008426227,0,0
74,-0.0134314792,0.0262366366,-1.03259838,0.000354741729,-0.00319267553,-0.000400078425,0.9996244,0.30868867,0.012703772,0.0045098164,0.008413368,0,0
75,-0.0129407011,0.02616091,-1.03056014,0.000118247233,-0.00212845043,-0.00106422522,0.99962515,0.308375,0.012695796,0.004503666,0.008402416,0,0
76,-0.0153812757,0.0206018146,-1.02809036,-0.00102480955,-0.000709483458,-0.00125011359,0.9996259,0.30807096,0.012687347,0.004497425,0.008394646,0,0
77,-0.0148927169,0.0205391478,-1.0284065,-0.000696344941,-0.0008885718,-0.00106422522,0.9996267,0.30778205,0.012679287,0.0044916095,0.008385242,0,0
78,-0.01326502,0.0244245082,-1.03192985,0.00106422522,-0.00212845043,0.000354741729,0.9996274,0.3075123,0.012672691,0.0044862074,0.008371451,0,0
79,-0.0128852157,0.0257196277,-1.033918,0.000417531643,-0.00212845043,0.000118247233,0.999628,0.30725622,0.012667073,0.004481159,0.008357833,0,0
80,-0.0129213743,0.0261513349,-1.03295314,-0.00212845043,-0.00248319213,0.000394157483,0.9996286,0.30699,0.012661164,0.004476524,0.0083472775,0,0
81,-0.0174907185,0.026457997,-1.03067839,-0.00248467,-0.00189195585,0.000486127537,0.99962926,0.3067183,0.01265278,0.0044712257,0.008337576,0,0
82,-0.0183627922,0.0250953734,-1.02764142,-0.00106422522,-0.00134013547,0.000516784261,0.99963,0.30647197,0.012642121,0.0044651083,0.008329333,0,0
83,-0.0189790037,0.02187424,-1.02728021,0.000354741729,-0.00151093712,0.00052700314,0.9996307,0.30626285,0.012631633,0.0044589005,0.008320408,0,0
84,-0.01999821,0.02128881,-1.02878749,0.00106422522,-0.000858387444,-0.00106422522,0.99963135,0.30608696,0.012622263,0.004453138,0.008308814,0,0
85,-0.02245383,0.0217447076,-1.03173125,0.0004199987,0.00106422522,-0.00159222,0.9996319,0.305927,0.0126149375,0.0044481726,0.008294649,0,0
86,-0.02294685,0.0214083921,-1.02831793,-0.00106422522,-0.000326568843,-0.00106422522,0.9996324,0.30576643,0.012606595,0.0044435384,0.008284915,0,0
87,-0.0159497317,0.0216218084,-1.02701747,-0.00106422522,-0.004256901,-0.0012728658,0.99963295,0.30561322,0.012597915,0.0044393335,0.008278008,0,0
88,-0.0136173591,0.0236460716,-1.02609575,-0.00016460492,-0.00283793383,-0.00212845043,0.9996335,0.30544308,0.012589193,0.0044351253,0.008270073,0,0
89,-0.0130026611,0.0254601482,-1.02090561,0.00106422522,-0.00212845043,0.000354741729,0.99963415,0.30524662,0.012579079,0.004430712,0.008264301,0,0
90,-0.007589428,0.0278552044,-1.01933825,0.000354741729,-0.00210099248,0.00118247245,0.99963474,0.30503905,0.012569464,0.0044272956,0.008260305,0,0
91,-0.007575382,0.0312577225,-1.02500069,0.0008277307,-0.00212845043,0.0014583827,0.9996353,0.3048456,0.012561618,0.0044242823,0.008250168,0,0
92,-0.0121279918,0.02636976,-1.02932966,0.00027591025,-0.00106422522,0.00106422522,0.9996357,0.30469647,0.012554996,0.0044205287,0.008237777,0,0
93,-0.0160869341,0.0214852318,-1.03093541,9.197008e-05,-0.00149427471,0.000354741729,0.99963605,0.30458874,0.0125483535,0.0044159456,0.00822446,0,0
94,-0.0193597078,0.0208336189,-1.03244722,0.00106422522,-0.00319267553,-0.0003635618,0.9996364,0.30450797,0.012541383,0.004410886,0.008208893,0,0
95,-0.0186602678,0.0201281328,-1.03490436,0.000354741729,-0.00177370862,-0.00106422522,0.99963665,0.3044355,0.012536152,0.0044063153,0.00819324,0,0
96,-0.0195664447,0.022497138,-1.0337702,0.000295200822,-0.00165546138,-0.00106422522,0.999637,0.30435,0.012530102,0.0044018384,0.008178703,0,0
97,-0.0190547016,0.0216592029,-1.03160179,0.00106422522,-0.00197078753,-0.00106422522,0.99963737,0.3042651,0.012522607,0.0043970956,0.008167153,0,0
98,-0.0167682339,0.0186129641,-1.03348315,0.00130160584,-0.002075896,-0.00106422522,0.99963766,0.30419046,0.012516565,0.0043928227,0.008155844,0,0
99,-0.0140529526,0.020527238,-1.03280818,0.00106422522,-0.00175619044,-0.00106422522,0.99963796,0.30410013,0.012510889,0.004389068,0.008144981,0,0
100,-0.01314786,0.0253971,-1.02900255,0.0009813996,-0.001649622,-0.000354741729,0.9996384,0.30397546,0.012503133,0.0043854816,0.008136311,0,0
101,-0.01577585,0.0262065846,-1.03343058,0.00106422522,-0.001968841,0.00106422522,0.9996388,0.30385143,0.012496442,0.0043822536,0.008124651,0,0
102,-0.0190932527,0.0243605282,-1.0336045,-0.00106422522,-0.00207524723,0.000354741729,0.9996391,0.30373675,0.012489311,0.004378959,0.008114851,0,0
103,-0.0197107717,0.0219548121,-1.03073275,-0.0009924675,-0.002110716,-0.000906591944,0.99963945,0.30364043,0.0124798,0.0043747826,0.008107343,0,0
104,-0.015196559,0.02261775,-1.03205407,0.00106422522,-0.001767797,-0.00212845043,0.9996398,0.30357188,0.012470624,0.0043704542,0.008097395,0,0
105,-0.0109248944,0.0243035723,-1.03005314,0.00106422522,-0.00165349094,-0.000709483458,0.99964017,0.30348805,0.012462401,0.0043667504,0.008088858,0,0
106,-0.0132444957,0.0209592637,-1.0302,0.000354741729,-0.00197013072,-0.000945978041,0.99964046,0.3034028,0.01245445,0.004363271,0.008081007,0,0
107,-0.0146687375,0.018379651,-1.03382969,0.000118247233,-0.00172093546,-0.000315326,0.99964076,0.30332857,0.012448352,0.004360078,0.00807053,0,0
108,-0.01709661,0.0209377483,-1.03829479,0.00106422522,-0.00128312863,0.0009591165,0.99964094,0.30326042,0.012443629,0.004356912,0.00805539,0,0
109,-0.0192079842,0.0213021655,-1.034412,0.000206852565,-0.00106422522,0.0006744472,0.99964124,0.3031885,0.012436294,0.0043532,0.008044957,0,0
110,-0.0168193281,0.01784291,-1.03067636,-0.00212845043,-0.000354741729,0.00022481574,0.99964154,0.30310804,0.012427508,0.0043497314,0.008040392,0,0
111,-0.0148837864,0.0179919079,-1.03236091,-0.000709483458,-0.000392415968,0.00106422522,0.99964184,0.30303282,0.012418954,0.004346227,0.008032606,0,0
112,-0.01586621,0.02032022,-1.03080654,-0.000188598235,-0.00106422522,0.00176206313,0.9996422,0.3029519,0.012409454,0.0043426417,0.008024426,0,0
113,-0.0161936861,0.0227239281,-1.03484571,-0.00106422522,-0.00212845043,0.00212845043,0.99964243,0.30287397,0.012401468,0.004339793,0.008013782,0,0
114,-0.01467524,0.0214092787,-1.03944731,-0.000354741729,-0.00319267553,0.00212845043,0.9996426,0.30282807,0.01239487,0.0043365704,0.00800111,0,0
115,-0.0135180494,0.0206455421,-1.03105271,-0.000303524022,-0.00307291583,0.0005351695,0.9996429,0.30277354,0.012384357,0.004332195,0.007994919,0,0
116,-0.0131323189,0.0223440882,-1.02711523,-0.00106422522,-0.00212845043,-0.00212845043,0.9996433,0.30270052,0.01237173,0.004328145,0.007990474,0,0
117,-0.0151196271,0.0204688627,-1.0285697,-0.00129870174,-0.0014524617,-0.00130070187,0.9996437,0.30262947,0.012360461,0.004324643,0.007984107,0,0
118,-0.0141544593,0.0177279022,-1.02970552,-0.00106422522,-0.00106422522,0.00212845043,0.99964404,0.30256173,0.012351756,0.0043216543,0.007977067,0,0
119,-0.0128561743,0.0197439361,-1.03024685,-0.00106422522,-0.00177370885,0.00106422522,0.9996443,0.30250224,0.012343045,0.0043189223,0.007969295,0,0
120,-0.0119351307,0.0210669879,-1.03059,-0.000354741729,-0.0020102032,-0.00034547082,0.9996446,0.3024576,0.012333352,0.0043158066,0.007960983,0,0
121,-0.0108143138,0.0223218072,-1.03477347,-0.0003753682,-0.00102480955,-0.00106422522,0.9996448,0.30242404,0.012325374,0.004312996,0.007949719,0,0
122,-0.0114172706,0.0243676845,-1.03649342,-0.00106422522,0.00106422522,-0.000354741729,0.99964505,0.3023799,0.012318446,0.0043103495,0.007937596,0,0
123,-0.0135713816,0.0213061552,-1.03137016,-0.00106422522,9.765953e-05,0.00106422522,0.99964535,0.3023309,0.01230879,0.0043068165,0.007930739,0,0
124,-0.0165680647,0.0210994482,-1.02657,-0.000354741729,-0.00319267553,0.000354741729,0.99964577,0.30227855,0.012295777,0.004302823,0.007926209,0,0
125,-0.0174041986,0.02298367,-1.02789962,0.0005912362,-0.00212845043,0.000275026483,0.9996462,0.30222523,0.012283558,0.004299261,0.007918971,0,0
126,-0.0189849939,0.0205192957,-1.022809,0.00106422522,-0.00212845043,0.00106422522,0.99964666,0.3021751,0.0122700045,0.004295393,0.007915391,0,0
127,-0.0203257278,0.0175819527,-1.02485561,0.000354741729,-0.00212845043,0.000354741729,0.999647,0.30213958,0.0122582195,0.004292335,0.007910303,0,0
128,-0.0184939932,0.0180676822,-1.03823316,-0.000428245781,-0.00141896692,0.00031575,0.9996471,0.30213714,0.012253164,0.004290766,0.007895842,0,0
129,-0.0188599769,0.0198571961,-1.03894889,-0.00106422522,-0.00118247245,0.00106422522,0.9996472,0.30213115,0.012248288,0.0042886315,0.007882041,0,0
130,-0.01833093,0.0225695875,-1.03349078,0.00106422522,-0.001103641,0.00177370885,0.9996475,0.30210727,0.012239332,0.0042850557,0.007872043,0,0
131,-0.0168524981,0.0265661646,-1.03281069,0.00102760014,-0.00106422522,0.00165546138,0.9996478,0.3020612,0.012229479,0.004281893,0.007863162,0,0
132,-0.0161969271,0.0265962724,-1.03909445,-0.00106422522,-0.00105682435,0.00106422522,0.999648,0.30201915,0.01222227,0.004279698,0.0078523075,0,0
133,-0.01467632,0.0225372985,-1.04346764,-0.00106422522,-0.00106422522,0.000354741729,0.99964803,0.30200833,0.012216422,0.004276872,0.007840302,0,0
134,-0.0131928883,0.0190684218,-1.0405308,-0.00106422522,-0.00177370885,0.000118247241,0.99964815,0.30199695,0.012209386,0.0042732535,0.007831386,0,0
135,-0.0135122128,0.0192142129,-1.03971469,-0.00110996258,-0.00212845043,3.94157469e-05,0.9996483,0.30196384,0.0122018615,0.0042697527,0.007822518,0,0
136,-0.0154090188,0.0197510924,-1.04123306,-0.00106422522,-0.001790397,-0.000386701373,0.99964845,0.3019245,0.012194374,0.004266415,0.0078124106,0,0
137,-0.0150647247,0.0200928133,-1.039786,-0.00106422522,-0.00106422522,-0.00106422522,0.9996487,0.3018853,0.0121858595,0.0042629647,0.007804043,0,0
138,-0.0152754812,0.02476401,-1.03669941,-0.000282769382,-0.00141896692,-0.000354741729,0.999649,0.30182582,0.012175492,0.0042595714,0.007796574,0,0
139,-0.01762438,0.0250189919,-1.03436852,0.00106422522,-0.00153721415,-0.000118247241,0.9996494,0.30176926,0.0121634025,0.00425586,0.0077904565,0,0
140,-0.0184073448,0.0218487773,-1.03473091,-0.000354741729,-0.00122188823,-0.000465586025,0.99964976,0.30172205,0.01215243,0.0042528682,0.007785736,0,0
141,-0.017366251,0.025349332,-1.03599107,-0.00106422522,-0.00218100473,-0.00106422522,0.99965006,0.30167335,0.012142141,0.004250553,0.0077791777,0,0
142,-0.0183213037,0.0268417057,-1.03283036,-0.0015392669,-0.00179122679,0.00106422522,0.9996504,0.30160052,0.012130982,0.004248128,0.007774752,0,0
143,-0.0207555387,0.0270136427,-1.026894,-0.00212845043,-0.0005970756,0.00220823451,0.99965084,0.30150297,0.012117316,0.004245416,0.007774141,0,0
144,-0.0199393462,0.026745433,-1.029147,-0.00106422522,-0.0009085087,0.00212845043,0.99965125,0.30143347,0.012104022,0.0042427755,0.0077708606,0,0
145,-0.0152727515,0.0282836333,-1.03136289,-0.0006684632,-0.0010123197,0.00166133116,0.9996516,0.30139044,0.012092312,0.004240403,0.0077655204,0,0
146,-0.0133916987,0.0305867326,-1.0278697,-0.00106422522,-0.00106422522,0.00106422522,0.99965197,0.30133936,0.012079456,0.0042378446,0.0077619352,0,0
147,-0.0116253579,0.0271226615,-1.02865839,-0.000416580733,-0.00147898169,0.00106422522,0.99965227,0.3013057,0.012067204,0.0042350427,0.007758066,0,0
148,-0.0128269419,0.0251541678,-1.03136265,0.00106422522,-0.00212845043,0.000354741729,0.99965256,0.30129534,0.012056227,0.004231965,0.007750533,0,0
149,-0.0138785122,0.02726493,-1.03210127,0.00106422522,-0.00212845043,0.000118247241,0.9996528,0.301281,0.012046161,0.004229153,0.0077416017,0,0
150,-0.0152055984,0.0273174774,-1.02844131,0.000164924466,-0.00212845043,0.000455184374,0.99965316,0.30124825,0.012034925,0.004226329,0.0077362736,0,0
151,-0.0205307733,0.025219107,-1.02477992,-0.00106422522,-0.00177370885,0.00106422522,0.9996535,0.30119315,0.012022147,0.0042234934,0.007733661,0,0
152,-0.019213384,0.0277748574,-1.02779114,-0.000354741729,-0.0020102032,0.000354741729,0.9996539,0.30115455,0.012010106,0.004221056,0.00772783,0,0
153,-0.0158445667,0.0271619316,-1.03400326,-0.000684067,-0.00212845043,0.000118247233,0.99965405,0.30114463,0.012001367,0.0042191506,0.0077191223,0,0
154,-0.01602371,0.0269576237,-1.03981745,-0.00212845043,-0.00174509385,0.001103641,0.9996541,0.30113205,0.0119958455,0.004217674,0.007707582,0,0
155,-0.0177110285,0.026564,-1.04094172,-0.00255505857,-0.00106422522,0.000367880333,0.9996542,0.30111954,0.011989641,0.0042154277,0.007696449,0,0
156,-0.0176224262,0.0238286257,-1.034155,-0.00212845043,-0.00177370862,-0.00212845043,0.9996544,0.30111283,0.011978869,0.004211726,0.00769133,0,0
157,-0.01677909,0.0230795946,-1.03107893,-0.00106422522,-0.0020102032,-0.00168919959,0.9996547,0.30108932,0.011967084,0.0042080726,0.0076871677,0,0
158,-0.01731178,0.0218533557,-1.03575027,-0.000354741729,-0.00173429307,0.00106422522,0.9996549,0.3010586,0.011958799,0.004205447,0.0076792347,0,0
159,-0.0156989787,0.0233977344,-1.034866,-0.0004651721,-0.00199706457,0.00106422522,0.9996551,0.30102447,0.01195052,0.00420307,0.007672636,0,0
160,-0.0143475756,0.0240752865,-1.03473389,-0.00106422522,-0.00279413839,0.000354741729,0.9996553,0.30098745,0.011941576,0.004200811,0.0076672393,0,0
161,-0.01861716,0.0197438449,-1.03957272,-0.000709483458,-0.00305982982,0.000118247233,0.9996555,0.3009715,0.01193372,0.004198213,0.00765866,0,0
162,-0.0197148342,0.01732347,-1.04004633,-0.00130071968,-0.00212845043,0.000748899241,0.9996556,0.30095753,0.011926626,0.004195521,0.0076504378,0,0
163,-0.0171510372,0.0220505316,-1.03711176,-0.000433573237,-0.00141976308,0.00106422522,0.99965584,0.30092487,0.011917806,0.004192681,0.0076433127,0,0
164,-0.0187378451,0.0257421043,-1.03157628,0.0005649591,-0.00106422522,0.001503409,0.99965626,0.30086854,0.011905528,0.0041893995,0.0076391147,0,0
165,-0.01894126,0.0264843479,-1.02728975,0.00106422522,-0.00212845043,0.00212845043,0.9996567,0.3008067,0.0118911415,0.004186154,0.0076378793,0,0
166,-0.01656766,0.0239648353,-1.02976716,0.00116639223,-0.00212845043,0.00141896692,0.99965703,0.3007701,0.011878492,0.0041834633,0.0076353494,0,0
167,-0.0182178672,0.022799477,-1.02733767,0.00106422522,-0.00319267553,0.00106422522,0.9996574,0.30073795,0.0118654035,0.004180656,0.0076331315,0,0
168,-0.02039554,0.0222482625,-1.0242492,0.000709483458,-0.003965503,0.00141478959,0.9996578,0.30069613,0.01185164,0.004177937,0.007631867,0,0
169,-0.0175407,0.0235293675,-1.02728879,0.00130071968,-0.004256901,0.00212845043,0.9996581,0.3006622,0.011839981,0.0041758264,0.0076277624,0,0
170,-0.0159380455,0.0260722879,-1.03074348,0.000433573237,-0.00248319213,-0.00212845043,0.9996584,0.30064854,0.011829397,0.0041740006,0.007621264,0,0
171,-0.01670591,0.0244785231,-1.03628957,0.000144524427,-0.00224669767,-0.00320233032,0.9996586,0.30066168,0.011820871,0.004172061,0.0076115695,0,0
172,-0.0145204589,0.0265514348,-1.03276718,0.00106422522,-0.0018131244,-0.00106422522,0.9996588,0.300653,0.011811807,0.0041696406,0.007604023,0,0
173,-0.0144430175,0.0283817276,-1.02247846,0.000584364054,-0.00202334183,0.000421108649,0.99965924,0.30058935,0.01179899,0.004167004,0.0076041603,0,0
174,-0.0162075683,0.0268759411,-1.02686131,-0.00106422522,-0.002093414,0.00106422522,0.99965954,0.30051523,0.011788142,0.004165544,0.0076021235,0,0
175,-0.0148426266,0.0249091685,-1.03678572,-0.00212845043,-0.00140728813,-0.00106422522,0.99965966,0.30048868,0.0117809735,0.004164486,0.0075942385,0,0
176,-0.012271761,0.0227887332,-1.03667593,-0.000709483458,-0.00117857952,-0.000354741729,0.9996598,0.30048692,0.011773597,0.0041621355,0.0075863684,0,0
177,-0.0132051706,0.0228957236,-1.03273308,-0.0003096352,-0.001457085,0.000603169552,0.99965996,0.30046287,0.011764569,0.0041592964,0.007580674,0,0
178,-0.01856188,0.022768626,-1.03044224,-0.00106422522,-0.00154992018,0.00106422522,0.99966025,0.30041412,0.011754017,0.0041565304,0.007576241,0,0
179,-0.0232771356,0.0215869378,-1.03260839,-0.00131204131,-0.00193560694,0.000354741729,0.9996605,0.3003807,0.011743278,0.004153815,0.007570274,0,0
180,-0.0233840439,0.0246110111,-1.02795935,-0.00106422522,-0.00319267553,0.000118247241,0.99966085,0.30034593,0.011730215,0.004150826,0.007566785,0,0
181,-0.022117598,0.02773492,-1.0251075,-0.000354741729,-0.00318297558,-0.000326556,0.99966127,0.3003041,0.011715944,0.0041479706,0.0075644436,0,0
182,-0.0194168035,0.026009297,-1.03115559,0.0005912362,-0.00212845043,-0.00106422522,0.99966156,0.30029523,0.011704912,0.004145665,0.0075583896,0,0
183,-0.0170516949,0.0225044023,-1.0346365,0.000197078756,-0.00212845043,0.00106422522,0.9996617,0.3002957,0.011697524,0.004143862,0.0075512603,0,0
184,-0.0182164516,0.01987126,-1.039052,6.569291e-05,-0.00177370862,0.00212845043,0.99966174,0.30029693,0.0116924355,0.004142119,0.007541746,0,0
185,-0.0195812657,0.0193190649,-1.03808248,0.00106422522,-0.00165546138,0.00227755518,0.99966186,0.30029738,0.011685848,0.004139496,0.0075330287,0,0
186,-0.0162927136,0.0220646877,-1.03645718,0.000354741729,-0.00161604572,0.00212845043,0.99966204,0.30027783,0.011678152,0.0041370867,0.007526686,0,0
187,-0.0138944462,0.0270489063,-1.04210031,0.000293176563,-0.00160290708,0.00168355962,0.99966216,0.30025175,0.011671609,0.0041352008,0.007516694,0,0
188,-0.0178150758,0.02740823,-1.04154,0.00106422522,-0.00195326935,0.00106422522,0.9996624,0.30023184,0.011662971,0.0041321823,0.007507379,0,0
189,-0.0222144,0.0242727939,-1.03565657,0.00130231213,-0.00171531492,-0.0002840523,0.9996627,0.30021435,0.0116509525,0.004128146,0.007502627,0,0
190,-0.0187980291,0.0255062953,-1.03125393,0.00106422522,-0.001635997,-0.00212845043,0.99966305,0.30019176,0.011637633,0.0041246167,0.0075007635,0,0
191,-0.0153805939,0.0257547032,-1.03255332,-0.000769695849,-0.00196429924,0.00106422522,0.99966335,0.3001379,0.011627485,0.0041227937,0.007498854,0,0
192,-0.01489249,0.0255119856,-1.03754377,-0.00212845043,-0.002428475,0.00147296407,0.9996635,0.3000827,0.011619871,0.004121717,0.0074942163,0,0
193,-0.0137532251,0.0257566,-1.03953278,-0.00106422522,-0.00222845864,-0.00106422522,0.99966365,0.30005857,0.011611456,0.0041196705,0.0074878735,0,0
194,-0.0169542,0.0225829277,-1.03449917,0.00106422522,-0.00106422522,0.00106422522,0.99966395,0.3000311,0.011600884,0.0041162563,0.0074835913,0,0
195,-0.0194860343,0.023152642,-1.02517164,0.000354741729,-0.00109755422,0.00106422522,0.99966437,0.29997274,0.0115869595,0.0041129654,0.0074848197,0,0
196,-0.0198416989,0.0218777042,-1.01994658,0.000118247241,-0.00212845043,-0.00106422522,0.99966484,0.29992124,0.011570561,0.004109955,0.0074889553,0,0
197,-0.017681608,0.0173837151,-1.01869309,0.0004944669,-0.00177370862,-0.000354741729,0.9996653,0.29988548,0.011555454,0.004107485,0.007492922,0,0
198,-0.0130553273,0.0194664467,-1.021856,0.00106422522,-0.00130071968,0.000968918554,0.9996656,0.29985285,0.01154383,0.004106206,0.0074923476,0,0
199,-0.009234589,0.0234158989,-1.02795589,0.00106422522,-0.00114305678,0.00212845043,0.99966586,0.29982468,0.011535612,0.0041057724,0.0074870912,0,0
200,-0.0107279355,0.0219654571,-1.03389549,-0.000738871051,-0.00144524407,0.00106422522,0.999666,0.29981467,0.01152916,0.004105242,0.007479849,0,0
201,-0.0117139993,0.0203426536,-1.03245735,-0.00212845043,-0.00225545675,0.00102458918,0.99966604,0.29980013,0.0115213115,0.004103796,0.0074748723,0,0
202,-0.009764042,0.0193134379,-1.029862,-0.00106422522,-0.00252552773,0.00212845043,0.9996663,0.29977652,0.011511876,0.0041014072,0.0074714096,0,0
203,-0.01448515,0.02059797,-1.03029907,0.00106422522,-0.00212845043,0.002467189,0.9996665,0.29974893,0.011501496,0.0040984014,0.0074648815,0,0
204,-0.0194768216,0.0210261475,-1.0301193,0.00165402773,-0.001597066,0.00212845043,0.99966687,0.29973218,0.011490442,0.0040952084,0.0074578975,0,0
205,-0.02000139,0.021657154,-1.032989,0.00106422522,-0.00106422522,0.00201025931,0.9996671,0.29973033,0.011480815,0.0040926244,0.0074500307,0,0
206,-0.0167582761,0.0251226965,-1.03166687,0.000354741729,-0.00177370885,0.00212845043,0.99966735,0.29972163,0.011470916,0.004090373,0.007444123,0,0
207,-0.0143751549,0.0189536586,-1.02894747,0.000436383649,-0.0020102032,0.00319267553,0.9996675,0.29971582,0.011460529,0.004087641,0.0074424315,0,0
208,-0.0179753117,0.0126655428,-1.02934313,0.00106422522,-0.00208903477,0.00106422522,0.99966776,0.29972792,0.011449978,0.004084509,0.007439382,0,0
209,-0.0186870825,0.0139874732,-1.03159094,0.000354741729,-0.0024700535,0.000354741729,0.99966794,0.29973695,0.011440924,0.004082161,0.007433441,0,0
210,-0.0172967371,0.0178460851,-1.03087533,0.000330835523,-0.00224231812,0.0009879012,0.9996682,0.299728,0.011431831,0.0040801,0.007427716,0,0
211,-0.0200884957,0.01945781,-1.03014851,0.00106422522,-0.00181166455,0.00212845043,0.9996684,0.2997045,0.011421924,0.004077834,0.007422226,0,0
212,-0.0216701236,0.0212971345,-1.0343008,-0.00106422522,-0.00166811328,0.00127044832,0.99966866,0.29967925,0.01141349,0.0040764515,0.007415583,0,0
213,-0.0184538439,0.02500269,-1.03454554,-0.000354741729,-0.00126552116,-0.00106422522,0.9996689,0.2996728,0.011403745,0.004074456,0.0074089905,0,0
214,-0.0159169063,0.0223316252,-1.0263263,-0.000118247241,-0.00148606545,0.00212845043,0.9996692,0.29963914,0.011391951,0.004071806,0.0074091763,0,0
215,-0.0152340205,0.0219295528,-1.02733,-3.94157469e-05,-0.00226906384,0.00219015987,0.9996695,0.29959473,0.011381024,0.004069811,0.007407837,0,0
216,-0.0150063923,0.02635282,-1.03433788,-1.31385823e-05,-0.00217532157,-0.00106422522,0.9996697,0.2995735,0.011371981,0.004068346,0.007400362,0,0
217,-0.0168836415,0.0278272424,-1.03195381,-4.37952758e-06,-0.00143459067,-0.000354741729,0.99966997,0.29954743,0.011361912,0.004066214,0.007394477,0,0
218,-0.0179976728,0.026528351,-1.03181016,-0.000785284035,-0.00118768029,0.0006714363,0.9996702,0.29951432,0.01135226,0.004064243,0.007389956,0,0
219,-0.01592761,0.0243050233,-1.02980912,-0.00212845043,-0.00110537687,0.00106422522,0.99967045,0.2994748,0.011342609,0.004062456,0.0073884665,0,0
220,-0.0162141528,0.0225873515,-1.029142,0.00106422522,-0.00107794243,0.000354741729,0.99967074,0.29945984,0.011331566,0.004059598,0.0073850956,0,0
221,-0.0150075825,0.02038719,-1.03331423,0.00222432334,-0.00106879754,-0.0005912362,0.9996709,0.29947612,0.011322777,0.004057075,0.007378695,0,0
222,-0.0126522668,0.0196538027,-1.03096151,0.00106422522,-0.00177523273,-0.00106422522,0.9996711,0.2994839,0.011314334,0.0040549925,0.007374966,0,0
223,-0.01495961,0.0208741855,-1.02757311,0.000659449259,-0.00272019464,2.31888262e-05,0.9996714,0.2994541,0.011304643,0.004053052,0.0073727183,0,0
224,-0.0126362769,0.022420302,-1.02921057,0.00106422522,-0.0023256985,0.00212845043,0.99967164,0.29940888,0.011296087,0.004051597,0.0073695434,0,0
225,-0.0144659989,0.0237494763,-1.02829158,-0.000354741729,-0.00148471631,0.000709483458,0.9996719,0.2993551,0.0112866,0.0040501906,0.007367384,0,0
226,-0.0189821552,0.0256573781,-1.02798522,-0.0008277307,-0.00106422522,0.00106422522,0.9996722,0.29929584,0.011275866,0.004048508,0.0073642395,0,0
227,-0.0162557717,0.02434022,-1.02772033,7.883149e-05,-0.00216385256,0.00135082775,0.9996725,0.2992668,0.011264698,0.0040463614,0.0073619327,0,0
228,-0.0150214555,0.0224363226,-1.029097,0.000381018937,-0.004256901,0.00106422522,0.9996727,0.29925567,0.011254522,0.0040442618,0.007358696,0,0
229,-0.0139589747,0.0242430959,-1.02646339,-0.000582477136,-0.00283793383,0.0007094836,0.99967295,0.29921973,0.011244322,0.004042408,0.0073565887,0,0
230,-0.0149068981,0.028263323,-1.02135372,-0.000903642562,-0.002364945,-0.00106422522,0.99967337,0.29916397,0.011231311,0.004040334,0.007356474,0,0
231,-0.01831532,0.02992892,-1.02664912,-0.00101069768,-0.0025620237,-0.000842659734,0.99967366,0.29911792,0.011219994,0.0040388205,0.0073518096,0,0
232,-0.01831214,0.0277171936,-1.0316695,-0.00104638271,-0.0022729747,0.00106422522,0.99967384,0.2990972,0.011211755,0.004037472,0.007345079,0,0
233,-0.0171717554,0.0237247422,-1.03318024,-0.00106422522,-0.00288610836,0.00106422522,0.99967396,0.29909995,0.011204599,0.0040357444,0.0073391264,0,0
234,-0.01760543,0.0217428822,-1.03596246,-0.000354741729,-0.00379997,0.00141896692,0.999674,0.29910955,0.011198473,0.004033771,0.007331387,0,0
235,-0.01872655,0.0228726268,-1.03575051,-0.000118247241,-0.004256901,0.0008277308,0.99967414,0.29911,0.0111917155,0.0040315436,0.007323787,0,0
236,-0.0173098911,0.0242257714,-1.02933216,-3.94157469e-05,-0.003951171,0.000275910279,0.99967444,0.29908654,0.011182047,0.004028868,0.0073210904,0,0
237,-0.0197673589,0.0228864551,-1.02621615,-0.00039560406,-0.00319267553,0.00106422522,0.99967474,0.29903764,0.011171281,0.004026406,0.0073203356,0,0
238,-0.0189589113,0.0227655377,-1.03038585,-0.00106422522,-0.00258157449,0.000571980956,0.9996749,0.29899973,0.011162441,0.004024819,0.0073169265,0,0
239,-0.0151087,0.0250038784,-1.03242683,0.00106422522,-0.00212845043,-0.00106422522,0.99967515,0.2989958,0.01115366,0.00402278,0.007311103,0,0
240,-0.0144763375,0.0236341059,-1.03164232,0.00182099,-0.00248319213,-0.000354741729,0.9996754,0.29899636,0.011145095,0.004020545,0.007306243,0,0
241,-0.0162186753,0.02154991,-1.02959049,0.00106422522,-0.00260143937,0.00106422522,0.9996756,0.29897457,0.011136706,0.0040186113,0.007303369,0,0
242,-0.017776018,0.0236221049,-1.0279299,0.000354741729,-0.00264085527,0.00143764412,0.99967587,0.29892904,0.011127547,0.004016999,0.0073011327,0,0
243,-0.0153654441,0.024312837,-1.03258467,-0.0003337387,-0.00300873537,0.00106422522,0.99967605,0.29889697,0.011119873,0.0040158927,0.00729699,0,0
244,-0.0152129605,0.0209623519,-1.03543842,-0.00106422522,-0.00277662021,0.000933933654,0.99967617,0.29888088,0.01111329,0.0040145162,0.00729226,0,0
245,-0.0164642166,0.0187062,-1.0321579,-0.00106422522,-0.00198976533,0.00106422522,0.99967635,0.29885855,0.011105217,0.004012366,0.0072893742,0,0
246,-0.0167185422,0.0200700369,-1.02959955,-0.00106422522,-0.00172748044,-0.00126080075,0.9996766,0.29883528,0.011095174,0.004010019,0.007287215,0,0
247,-0.0181054,0.0255702212,-1.03183925,-0.000354741729,-0.00199479377,-0.00212845043,0.9996768,0.29881135,0.011085143,0.0040080426,0.007281477,0,0
248,-0.0188932065,0.0257760119,-1.03079545,-0.000118247241,-0.00172915647,0.00212845043,0.9996771,0.2987708,0.011075982,0.0040062387,0.007277311,0,0
249,-0.0167144015,0.0201479942,-1.03012192,-0.0004530641,-0.0005763855,0.00316892331,0.9996773,0.29874063,0.01106765,0.004004485,0.0072761946,0,0
250,-0.0156626124,0.0198995918,-1.03412914,-0.00106422522,-0.000192128486,0.00106422522,0.9996775,0.29872763,0.011060487,0.0040031155,0.0072720493,0,0
251,-0.0148237348,0.0222581979,-1.0349766,-0.000354741729,-0.00112826808,0.000354741729,0.9996776,0.29872593,0.01105264,0.004001302,0.0072663133,0,0
252,-0.0164972339,0.0207657535,-1.03167832,-0.000118247241,-0.00144031458,-0.00106422522,0.99967784,0.29872707,0.011042793,0.0039987774,0.007263039,0,0
253,-0.0160785038,0.0223841574,-1.028463,0.0003213146,-0.00189907162,-0.000354741729,0.99967813,0.2987082,0.011032144,0.0039964174,0.007260987,0,0
254,-0.0112188756,0.024876751,-1.02560091,0.00106422522,-0.00205199071,-0.000118247241,0.99967843,0.29867733,0.011021167,0.003994437,0.0072606816,0,0
255,-0.0113893645,0.0235917289,-1.02399588,0.00106422522,-0.00174822228,-3.94157469e-05,0.9996788,0.29863864,0.011010237,0.003992686,0.007261231,0,0
256,-0.01730557,0.023488909,-1.02687883,0.00100858824,-0.00235644937,0.000398827484,0.9996791,0.29860216,0.011000356,0.0039912453,0.0072580627,0,0
257,-0.0179755539,0.0232918765,-1.0291419,0.00106422522,-0.00255919178,0.00106422522,0.9996793,0.29858407,0.010991624,0.003989856,0.0072536794,0,0
258,-0.01722232,0.0246910434,-1.029408,-0.000354741729,-0.00298151444,0.000462526077,0.99967957,0.29856464,0.010983207,0.0039887265,0.0072501297,0,0
259,-0.0187616069,0.0269477963,-1.02217245,-0.0008277307,-0.004256901,-0.00106422522,0.99967986,0.2985273,0.01097097,0.003986842,0.0072507304,0,0
260,-0.0166705344,0.028351089,-1.01845849,-0.00106422522,-0.00385721377,-0.00106422522,0.9996803,0.29847196,0.010957727,0.0039851437,0.007253192,0,0
261,-0.0166245531,0.02751677,-1.028451,-0.000354741729,-0.00212845043,-0.00106422522,0.9996805,0.29844463,0.010949038,0.0039842506,0.0072480296,0,0
262,-0.0151443826,0.0230068918,-1.03731573,0.000423405669,-0.00248319213,-0.000354741729,0.9996805,0.2984709,0.010944712,0.003983297,0.0072384193,0,0
263,-0.0123723457,0.0203642771,-1.03636444,0.00106422522,-0.002956181,-0.000118247241,0.9996806,0.298505,0.010940609,0.00398161,0.0072308336,0,0
264,-0.0140525,0.0206227284,-1.0370239,0.000354741729,-0.00319267553,0.000331395131,0.9996806,0.29850712,0.010936564,0.003980082,0.0072234496,0,0
265,-0.0165656768,0.0218482018,-1.03610432,-0.000945978041,-0.00106422522,0.00106422522,0.9996807,0.29847208,0.010931599,0.003978597,0.007217636,0,0
266,-0.0170778818,0.0237215366,-1.02993834,-0.00137955125,-0.0003433412,-0.00106422522,0.99968094,0.29842767,0.01092229,0.0039763795,0.0072163716,0,0
267,-0.013016846,0.0228811372,-1.02625549,-0.00010510868,-0.00106422522,-0.00103941851,0.9996813,0.29839322,0.010911036,0.0039738626,0.007217441,0,0
268,-0.014104574,0.0222754832,-1.02405131,0.00212845043,-0.00212845043,0.00106422522,0.9996816,0.298355,0.010899588,0.003971313,0.0072174002,0,0
269,-0.0172340777,0.0233756825,-1.02478135,0.000709483458,-0.00212845043,0.00170538749,0.99968195,0.29830253,0.010889609,0.0039698933,0.0072163274,0,0
270,-0.0143709956,0.0243934561,-1.02648962,0.000236494481,-0.00212845043,0.00106422522,0.9996822,0.29826832,0.010880373,0.0039688004,0.007214783,0,0
271,-0.0139049152,0.0239189118,-1.029826,7.88314937e-05,-0.00212845043,0.000709483458,0.99968237,0.29825136,0.010872324,0.0039676786,0.007211089,0,0
272,-0.016190961,0.0239234921,-1.03224027,-0.000399211363,-0.00177370862,0.00165546138,0.99968255,0.29823282,0.010865311,0.0039664707,0.007205554,0,0
273,-0.0159764141,0.0237622578,-1.03304493,-0.00106422522,-0.00165546138,0.000906562258,0.99968266,0.29822183,0.010858186,0.003965025,0.0072005545,0,0
274,-0.0142772943,0.0204533041,-1.03461516,-0.000354741729,-0.00197078753,-0.0004072961,0.9996828,0.2982374,0.010851079,0.003962989,0.0071955253,0,0
275,-0.0141992019,0.0190247986,-1.03546417,-0.000118247241,-0.00172115432,0.000218976362,0.9996829,0.29824644,0.010844878,0.003960978,0.0071897707,0,0
276,-0.01384765,0.0211527962,-1.02874851,-0.00125088112,-0.00106422522,0.00113721739,0.9996831,0.29821026,0.010836676,0.0039590686,0.0071885725,0,0
277,-0.0150325494,0.0213738475,-1.02634716,-0.00319267553,-0.00126898044,0.000379072473,0.9996833,0.29815155,0.010827035,0.0039576413,0.007189743,0,0
278,-0.0139626721,0.0190061256,-1.03091776,-0.00216464419,-0.00212845043,0.0001263575,0.9996835,0.2981263,0.0108184945,0.003956133,0.0071875243,0,0
279,-0.0123039633,0.0211465731,-1.02983713,0.00106422522,-0.00248319213,0.00106422522,0.99968374,0.29811603,0.010809507,0.0039538634,0.007183388,0,0
280,-0.0167966336,0.0228366181,-1.02801216,0.00106422522,-0.00153721415,0.000354741729,0.99968404,0.2980943,0.010799916,0.0039517456,0.007179648,0,0
281,-0.02187492,0.0203075185,-1.02740383,0.00106422522,-0.00157662993,0.000118247241,0.99968433,0.29808575,0.010789828,0.003949569,0.0071766134,0,0
282,-0.0201497134,0.0196272451,-1.03224659,-4.6816247e-05,-0.00158976857,3.94157469e-05,0.9996845,0.29809406,0.010782538,0.003948389,0.0071716825,0,0
283,-0.01387803,0.017935643,-1.0332098,-0.00212845043,-0.000529922836,1.31385823e-05,0.9996846,0.29809958,0.010777047,0.0039477646,0.0071689356,0,0
284,-0.0130895516,0.0185111,-1.03434467,-0.00212845043,0.00106422522,4.37952758e-06,0.9996847,0.29808876,0.010771538,0.003946878,0.007164844,0,0
285,-0.0147798508,0.0200050026,-1.03732717,-0.000792548351,0.0007148376,0.000393046881,0.9996848,0.29808336,0.010765828,0.0039455006,0.007157887,0,0
286,-0.0130646378,0.0182243232,-1.03522885,0.00106422522,-0.00106422522,0.00106422522,0.99968493,0.2980943,0.010758742,0.0039432263,0.007153236,0,0
287,-0.0128184212,0.0184445661,-1.03697073,0.00106422522,-0.00212845043,0.00212845043,0.9996851,0.29809007,0.010752876,0.003941485,0.007147816,0,0
288,-0.0156660359,0.0196573045,-1.03608656,0.000927943562,-0.00212845043,0.000859738269,0.9996853,0.2980759,0.010745878,0.0039395383,0.00714287,0,0
289,-0.01938217,0.0229912382,-1.03465259,0.00106422522,-0.00248319213,-0.00212845043,0.9996855,0.2980648,0.010736621,0.0039372467,0.0071379826,0,0
290,-0.0228995252,0.0265439544,-1.03645325,0.000354741729,-0.00260143937,-0.001199723,0.9996858,0.29804012,0.0107280845,0.003935555,0.007131747,0,0
291,-0.0201657265,0.0236591827,-1.03851831,-0.000417231,-0.00157662993,0.00106422522,0.99968594,0.2980204,0.010721767,0.0039342856,0.00712719,0,0
292,-0.0168130547,0.0187913422,-1.03643978,-0.00106422522,-0.00123502675,0.00106422522,0.99968606,0.29800513,0.010715467,0.003932812,0.0071260296,0,0
293,-0.0178113822,0.0212377384,-1.03542137,-0.001228084,-0.00112115906,0.00106422522,0.99968624,0.29796565,0.010708402,0.003931441,0.0071236277,0,0
294,-0.0155399917,0.0248201322,-1.03068733,-0.00106422522,-0.00179268664,-0.00106422522,0.99968654,0.2979233,0.010698359,0.003929675,0.0071237287,0,0
295,-0.01787531,0.0245494191,-1.0216223,0.000354741729,-0.002371271,-0.00178213511,0.99968696,0.29787198,0.010684213,0.0039270013,0.007127777,0,0
296,-0.0215834379,0.0255985036,-1.02218139,0.000118247233,-0.00212845043,-0.00106422522,0.99968743,0.29781085,0.010671418,0.0039254255,0.0071292487,0,0
297,-0.01891323,0.0274130423,-1.02757609,3.94157432e-05,-0.0024059182,-0.000354741729,0.99968773,0.29777437,0.010662014,0.003924922,0.0071270885,0,0
298,-0.0160700362,0.0260647628,-1.02807224,1.31385941e-05,-0.00319267553,-0.000841226662,0.9996879,0.29776174,0.010653515,0.0039242418,0.007125645,0,0
299,-0.0141457422,0.02317393,-1.02384317,-0.00106422522,-0.00177370862,-0.00212845043,0.99968815,0.29774094,0.010644289,0.0039232783,0.007127581,0,0
300,-0.01708504,0.0228613615,-1.0242238,-0.000354741729,-0.00165546138,-0.000709483458,0.9996884,0.29770634,0.010635368,0.0039223093,0.007126852,0,0
301,-0.02050621,0.0243847761,-1.02874517,-0.000286613416,-0.00161604572,0.0008277308,0.9996886,0.29767284,0.010628281,0.0039217616,0.0071222046,0,0
302,-0.0200189967,0.0248925816,-1.02960122,-0.00106422522,-0.00124816538,0.0009853938,0.9996888,0.29764894,0.010621469,0.0039211283,0.007118507,0,0
303,-0.0164386239,0.0239225272,-1.02825892,-0.00169746811,-0.00106422522,0.00139268988,0.999689,0.29762533,0.010614235,0.003920261,0.0071172556,0,0
304,-0.0141058443,0.0205067266,-1.026835,-0.00212845043,-0.00103297387,0.00152845506,0.9996891,0.29760012,0.010606616,0.003919099,0.007117647,0,0
305,-0.013653771,0.0214840118,-1.02896452,-0.000709483458,-0.00106422522,0.00106422522,0.9996893,0.29758173,0.010599153,0.0039176825,0.0071144733,0,0
306,-0.0149679231,0.024739461,-1.03227854,-0.000236494481,-0.000354741729,0.000354741729,0.9996894,0.29756886,0.010592399,0.003916334,0.007108049,0,0
307,-0.0152432136,0.0237087253,-1.02801216,0.000266995165,-0.00118247245,0.000422926,0.99968964,0.29756215,0.010583708,0.0039142566,0.007105357,0,0
308,-0.01240529,0.0212492626,-1.02382314,0.00106422522,-0.002522608,0.00106422522,0.9996899,0.29755238,0.010574055,0.003912054,0.0071058827,0,0
309,-0.0125986384,0.0202666819,-1.026333,0.00128566078,-0.0022598363,-0.000354741729,0.9996901,0.29754552,0.0105658015,0.003910438,0.0071038776,0,0
310,-0.0155927753,0.0215667579,-1.02505362,0.00106422522,-0.001817504,-0.0008277307,0.99969035,0.29752952,0.010557232,0.0039089154,0.0071014604,0,0
311,-0.0174046233,0.02379048,-1.02690589,0.0009869629,-0.00202480145,-0.00027591025,0.9996906,0.29751098,0.010549299,0.003907783,0.0070974636,0,0
312,-0.018008573,0.0261593256,-1.03256893,0.00106422522,-0.003158126,0.000972255133,0.9996908,0.29750082,0.010543443,0.0039071036,0.00709039,0,0
313,-0.0209768172,0.024344774,-1.02745783,0.00106422522,-0.00282641756,0.000678826764,0.999691,0.29748794,0.010535274,0.0039053909,0.007087799,0,0
314,-0.0201758668,0.02211232,-1.02868378,0.000354741729,-0.00200636429,0.000935759,0.9996912,0.29747343,0.010528028,0.0039040742,0.0070854807,0,0
315,-0.0186067987,0.02201921,-1.03560293,0.000118247241,-0.00208775513,0.00102140324,0.99969125,0.29747334,0.010523568,0.0039033305,0.007078999,0,0
316,-0.0174327344,0.0221509337,-1.03758383,0.0004515507,-0.002469627,-0.00106422522,0.9996913,0.29749328,0.010518971,0.0039020258,0.0070719374,0,0
317,-0.0178551823,0.0238224473,-1.03368676,0.00106422522,-0.00224217586,-0.000575394544,0.9996914,0.2974893,0.010512581,0.0039001282,0.007067114,0,0
318,-0.0181587581,0.02503066,-1.03043461,0.000354741729,-0.001811617,0.00212845043,0.99969167,0.29744115,0.010505678,0.0038986634,0.007065113,0,0
319,-0.0171206277,0.024131313,-1.032443,-0.00106422522,-0.00212845043,0.00175401848,0.99969184,0.29739186,0.010499376,0.00389778,0.007063524,0,0
320,-0.0154725015,0.0236687716,-1.02985728,-0.00145958178,-0.000709483458,-0.00106422522,0.999692,0.29735428,0.010491249,0.0038963326,0.007063571,0,0
321,-0.0160624478,0.0235145912,-1.02850711,-0.00106422522,-0.00111891166,-0.000354741729,0.99969226,0.29731488,0.010482506,0.0038947414,0.0070630694,0,0
322,-0.0182122216,0.0229749158,-1.02887094,-0.00141896692,-0.00319267553,0.0005912362,0.99969244,0.29727513,0.01047421,0.0038934618,0.0070618056,0,0
323,-0.01795225,0.02133018,-1.02655077,-0.0008277308,-0.00177370862,-0.000157662973,0.9996927,0.29724413,0.010465288,0.0038918266,0.0070617753,0,0
324,-0.017540073,0.0246881843,-1.0274049,-0.000275910279,-0.00106422522,-0.00111677952,0.999693,0.29721645,0.01045665,0.0038905626,0.0070595387,0,0
325,-0.01284539,0.0275978837,-1.02801514,-9.197008e-05,-0.000999145,-0.00106422522,0.99969316,0.29719546,0.0104487585,0.0038897034,0.007057323,0,0
326,-0.0109549733,0.0251498148,-1.026591,-3.06566944e-05,-0.00106422522,-0.000197283167,0.9996934,0.29717383,0.01044107,0.0038887172,0.0070569925,0,0
327,-0.0137428036,0.02335723,-1.02774382,-0.000719702337,-0.00141896692,0.00106422522,0.9996936,0.29713896,0.010434337,0.003888006,0.0070555354,0,0
328,-0.0136955185,0.0201555341,-1.03008127,-0.00106422522,-0.00153721415,0.00023295579,0.9996937,0.29712498,0.010428288,0.0038871437,0.007053358,0,0
329,-0.0125404336,0.0164841358,-1.03265083,-0.0011163766,-0.00122188823,-0.00212845043,0.99969375,0.29714108,0.010422847,0.0038859549,0.0070500593,0,0
330,-0.0124809258,0.0173762217,-1.0289501,-0.00106422522,-0.001826263,-0.000354741729,0.9996939,0.2971299,0.0104165645,0.0038846042,0.007048077,0,0
331,-0.013437652,0.0189756677,-1.02641439,-0.00106422522,-0.00202772114,-0.000118247233,0.9996941,0.29709545,0.010409061,0.003883329,0.007047289,0,0
332,-0.0150586441,0.0198343378,-1.03256786,-0.000354741729,-0.002094874,0.00106422522,0.9996942,0.29706895,0.010403498,0.003882501,0.0070421826,0,0
333,-0.0134830894,0.0258171763,-1.02973616,0.000405796251,-0.00211725826,0.00149097573,0.99969447,0.2970344,0.01039646,0.0038813301,0.0070383395,0,0
334,-0.0168641545,0.0279742163,-1.022119,0.00106422522,-0.00106422522,0.00106422522,0.9996948,0.29698294,0.010385531,0.0038793064,0.007038823,0,0
335,-0.0207581036,0.0275539067,-1.0260905,0.000354741729,-0.000714328839,0.000354741729,0.9996951,0.29694796,0.010375807,0.0038779962,0.0070366166,0,0
336,-0.0176615547,0.0244841147,-1.0279026,0.000118247241,-0.00106422522,0.000421139644,0.99969536,0.29694924,0.010367673,0.0038767974,0.007034528,0,0
337,-0.0176059362,0.0210194439,-1.02639067,-0.0007144775,-0.00212845043,0.00106422522,0.99969554,0.29694825,0.010360078,0.0038756172,0.007033835,0,0
338,-0.0140066668,0.02230596,-1.02897918,-0.00212845043,-0.00248319213,0.00125766383,0.9996956,0.29693118,0.010354344,0.003875264,0.007031797,0,0
339,-0.0113420663,0.0228975583,-1.03049314,-0.002130953,-0.00212845043,0.00106422522,0.9996957,0.2969104,0.010348941,0.003874684,0.007029048,0,0
340,-0.0163132418,0.0216299146,-1.032137,-0.00106422522,-0.00160934438,-0.000181866315,0.99969584,0.29690054,0.010342771,0.0038732325,0.0070240907,0,0
341,-0.0178075377,0.0207190868,-1.02829039,-0.000354741729,-0.00106422522,-0.00212845043,0.9996961,0.2969042,0.010334524,0.003871051,0.0070213703,0,0
342,-0.0184683967,0.0230196435,-1.02619445,0.00106422522,-0.00212845043,-0.000709483458,0.9996963,0.2968965,0.010325813,0.0038690916,0.007018535,0,0
343,-0.0177121218,0.0270417035,-1.02663517,0.000354741729,-0.00212845043,-0.00130071968,0.99969655,0.29687473,0.010317869,0.003868112,0.0070157866,0,0
344,-0.0164834689,0.0265920255,-1.02515447,0.000118247241,-0.00141896692,-0.00149779848,0.9996968,0.2968524,0.010309711,0.0038671824,0.0070151496,0,0
345,-0.01705048,0.0233496856,-1.02645123,0.000483023236,-0.00153721415,-0.000499266142,0.999697,0.29683718,0.010302547,0.0038662897,0.007013854,0,0
346,-0.0149608376,0.0201530214,-1.02346551,0.00106422522,-0.00157662993,0.00106422522,0.9996972,0.29682064,0.010295359,0.0038651826,0.0070145917,0,0
347,-0.0165429357,0.02022679,-1.01986611,0.000354741729,-0.00158976857,0.000354741729,0.99969745,0.29678494,0.010286986,0.0038642355,0.007016611,0,0
348,-0.0173958223,0.0217162222,-1.022247,0.000118247241,-0.00159414811,0.000118247241,0.9996977,0.29675102,0.010279149,0.003863694,0.0070160204,0,0
349,-0.0170290768,0.0217244178,-1.02336609,3.94157469e-05,-0.00124086614,0.000483103446,0.9996979,0.29672745,0.010271802,0.003863103,0.0070146844,0,0
350,-0.0190227125,0.0241685566,-1.02390194,1.31385823e-05,-0.00112310553,0.00106422522,0.9996981,0.2966983,0.010264445,0.0038624702,0.007012025,0,0
351,-0.0170830917,0.0244949888,-1.02603376,-0.000386560219,-0.0003743685,0.000354741729,0.9996983,0.29668424,0.010257739,0.0038618685,0.0070091235,0,0
352,-0.0149717079,0.0223251525,-1.03081334,-0.00106422522,-0.000479531242,0.0003379672,0.99969834,0.29668778,0.010253029,0.0038614224,0.007004624,0,0
353,-0.0155699961,0.0212763529,-1.03387129,-0.000354741729,-0.00122406892,0.00106422522,0.9996984,0.29669783,0.010249197,0.0038605055,0.0069980603,0,0
354,-0.0164204668,0.020275712,-1.03358853,-0.000330476643,-0.00147224811,-0.00106422522,0.99969846,0.29671445,0.010244449,0.0038590133,0.0069925254,0,0
355,-0.0145880729,0.0181518,-1.03414536,-0.00106422522,-0.002264458,-0.0006514658,0.99969846,0.29672202,0.01024029,0.0038577158,0.006988305,0,0
356,-0.0139772743,0.0192341935,-1.03221512,0.00106422522,-0.00217378628,0.00212845043,0.9996986,0.29670334,0.010235551,0.0038560191,0.006984081,0,0
357,-0.0152385188,0.0208970755,-1.03450143,0.00183076388,-0.00143407891,0.000709483458,0.99969876,0.29668713,0.010230832,0.0038544773,0.0069784415,0,0
358,-0.0137058087,0.0204748064,-1.03347313,0.00106422522,-0.00118750974,0.000236494481,0.9996989,0.29667324,0.010225696,0.0038530624,0.0069751777,0,0
359,-0.0117300609,0.0214733724,-1.03150272,-0.00106422522,-0.00181480346,-0.000214817017,0.999699,0.29663804,0.010219993,0.003852164,0.0069743856,0,0
360,-0.0100949155,0.0235965922,-1.03654253,-0.0009130591,-0.00237864326,-0.00106422522,0.9996991,0.29660934,0.010215287,0.003851505,0.006970021,0,0
361,-0.0137816379,0.0251181349,-1.03740871,0.00106422522,-0.00185710622,-0.00212845043,0.99969923,0.29659495,0.010209542,0.0038498442,0.006963614,0,0
362,-0.0226602852,0.0207425039,-1.03004777,0.000875566853,-0.001328519,-0.002024488,0.99969953,0.29657248,0.010200973,0.0038473364,0.0069621895,0,0
363,-0.0213880632,0.0183073971,-1.0253154,-0.00106422522,-0.00150706491,-0.00106422522,0.9996998,0.296534,0.0101922285,0.0038458344,0.006965128,0,0
364,-0.0164066982,0.01961158,-1.03220141,-0.0008624852,-0.00192132185,-0.000354741729,0.99969995,0.29650745,0.010186794,0.003845615,0.0069633042,0,0
365,-0.0147462441,0.0218366738,-1.03547335,0.00106422522,-0.00170466583,0.00106422522,0.99970007,0.29649118,0.010182564,0.003845111,0.0069583203,0,0
366,-0.01468104,0.025670819,-1.03428543,0.00106422522,-0.00198718882,0.000354741729,0.99970025,0.29646713,0.010177264,0.00384437,0.006954289,0,0
367,-0.0187283158,0.0223915745,-1.03307569,0.00106422522,-0.00319267553,0.000118247241,0.9997004,0.29644957,0.010170638,0.003842989,0.006951997,0,0
368,-0.0195891261,0.0217867736,-1.02551091,0.000320094347,-0.00356020918,-0.000302900153,0.99970067,0.29641253,0.010161506,0.003841307,0.0069542592,0,0
369,-0.0156442914,0.0243521016,-1.02185,-0.00106422522,-0.00319267553,-0.00106422522,0.99970096,0.296352,0.010151803,0.003840444,0.0069584455,0,0
370,-0.0125389816,0.024067888,-1.025838,0.000354741729,-0.00248319213,-0.000354741729,0.9997012,0.2963088,0.010143986,0.0038398618,0.006958762,0,0
371,-0.0098762745,0.024786951,-1.02781832,0.00106422522,-0.00153721415,-0.00106422522,0.9997014,0.2962853,0.010137458,0.00383932,0.006957035,0,0
372,-0.0104535492,0.02502664,-1.02896678,0.00114546588,-0.00122188823,-0.000199484813,0.99970156,0.29626212,0.010131766,0.0038387948,0.00695421,0,0
373,-0.0160170682,0.0281989854,-1.03358138,0.00106422522,-0.00106422522,0.00212845043,0.99970174,0.29622498,0.010127472,0.0038385342,0.00694743,0,0
374,-0.0173832942,0.0292564332,-1.033492,-0.00106422522,-0.000354741729,0.002801456,0.99970186,0.29618266,0.010122797,0.0038382227,0.0069433255,0,0
375,-0.0155600561,0.02733027,-1.02776563,-0.00212845043,-0.0007856155,0.00212845043,0.99970204,0.2961425,0.010115155,0.003837047,0.006944746,0,0
376,-0.0154405916,0.0266882163,-1.02650785,-0.000709483458,-0.00212845043,0.000709483458,0.9997023,0.296118,0.01010594,0.0038352427,0.006945134,0,0
377,-0.0168656129,0.0248465929,-1.02690232,0.000460570853,-0.000709483458,0.00106422522,0.9997025,0.29610226,0.010097553,0.003833392,0.0069436408,0,0
378,-0.0183171835,0.02488376,-1.02198827,0.00106422522,-0.000945978041,0.001291227,0.9997028,0.29608425,0.010088024,0.0038314715,0.0069440026,0,0
379,-0.0179872382,0.0266865138,-1.0195365,0.00106422522,-0.00102480955,0.00106422522,0.9997031,0.29605994,0.010078186,0.0038301158,0.0069451206,0,0
380,-0.0172262136,0.0258225873,-1.02734554,0.00024278507,-0.00105108658,-0.000354741729,0.9997033,0.2960638,0.010071601,0.0038297994,0.0069420035,0,0
381,-0.017623581,0.02488357,-1.036459,-0.00106422522,-0.00105984567,-0.000118247233,0.9997033,0.2960865,0.010068957,0.003830072,0.006934273,0,0
382,-0.017430516,0.0240822826,-1.03819466,-0.000354741729,-0.00106276537,0.00106422522,0.9997033,0.2961127,0.010066714,0.0038295118,0.006926472,0,0
383,-0.0167151187,0.02055998,-1.03600633,-0.000283921661,-0.00106422522,0.00140326994,0.9997033,0.29612985,0.010063507,0.0038282662,0.00692221,0,0
384,-0.01891806,0.0190603584,-1.02892923,-0.00106422522,-0.00185003632,0.00106422522,0.9997034,0.29611185,0.010057329,0.0038266245,0.006922596,0,0
385,-0.01753649,0.0205136091,-1.0265702,-0.000354741729,-0.00319267553,0.00106422522,0.99970365,0.29607922,0.010049792,0.003825152,0.006923422,0,0
386,-0.01479732,0.0239277128,-1.0288763,-0.000118247233,-0.00248319213,0.00106422522,0.9997038,0.29603943,0.01004341,0.0038244056,0.0069220127,0,0
387,-0.0138842622,0.0236009043,-1.026878,0.00106422522,-0.00260143937,0.00105573179,0.999704,0.29601023,0.010036157,0.003823196,0.006921587,0,0
388,-0.0119523061,0.0210505631,-1.02800226,0.000354741729,-0.00264085527,0.00106422522,0.9997042,0.29598755,0.010030176,0.0038224477,0.0069213444,0,0
389,-0.01456353,0.0175962821,-1.02512181,0.00027597326,-0.00300873537,0.00106718868,0.99970436,0.2959633,0.010023337,0.0038213131,0.0069222488,0,0
390,-0.0160849784,0.01823522,-1.028068,0.00106422522,-0.00277662021,0.00106422522,0.99970454,0.29594606,0.010017419,0.0038204128,0.0069196275,0,0
391,-0.0164293665,0.0252841357,-1.03409564,0.000354741729,-0.00198976533,-0.00212845043,0.99970466,0.29594165,0.010012781,0.003820195,0.0069125397,0,0
392,-0.0168696847,0.0245413259,-1.033338,-0.0005912362,-0.00106422522,-0.00279465364,0.9997048,0.29594547,0.010007536,0.0038195022,0.0069082393,0,0
393,-0.0175047386,0.022015078,-1.03406191,-0.000906562258,-0.00160482607,-0.00106422522,0.9997049,0.29594198,0.010002983,0.0038188037,0.006904646,0,0
394,-0.0180419441,0.021661276,-1.03267562,-0.00106422522,-0.00319267553,0.00106422522,0.999705,0.29591703,0.009998375,0.0038181413,0.0069023417,0,0
395,-0.01724445,0.0225199033,-1.029121,-0.00149811851,-0.00248319213,0.000354741729,0.99970514,0.2958735,0.009992265,0.0038173324,0.0069026877,0,0
396,-0.0160020571,0.0234571546,-1.02484369,-0.00212845043,-0.002956181,0.000118247241,0.9997054,0.29581448,0.0099843955,0.003816522,0.006905558,0,0
397,-0.01314652,0.02263025,-1.02537107,-0.00112336944,-0.00240436057,-0.000293679885,0.9997056,0.2957701,0.009976687,0.0038156828,0.006907193,0,0
398,-0.013171236,0.0213780534,-1.03108072,0.00106422522,-0.00186567882,-0.00106422522,0.99970573,0.29576454,0.009970961,0.0038147531,0.006903449,0,0
399,-0.01529536,0.01949581,-1.0316819,0.00168826373,-0.00204086,-0.00106422522,0.9997059,0.29577643,0.009965983,0.0038136265,0.0068991026,0,0
400,-0.016003402,0.02114704,-1.02976644,0.00106422522,-0.00245399517,-0.000354741729,0.99970603,0.29576862,0.009960823,0.0038128274,0.006896212,0,0
401,-0.0190063417,0.02153469,-1.02815139,-0.00106422522,-0.002591707,0.000388889661,0.9997062,0.29572996,0.009955224,0.0038125014,0.006895539,0,0
402,-0.0183797181,0.01905974,-1.0274502,-0.0009263817,-0.00192812749,0.00106422522,0.9997064,0.29569638,0.009949087,0.0038118532,0.0068960125,0,0
403,-0.0131252706,0.0214899648,-1.02982056,0.00106422522,-0.00135219272,0.00123797264,0.99970657,0.29567972,0.0099436315,0.0038111487,0.006893763,0,0
404,-0.0116993086,0.0249042064,-1.0312618,-0.00212845043,-0.00186969771,0.00106422522,0.9997066,0.2956384,0.009939352,0.0038114712,0.006891968,0,0
405,-0.01203779,0.02343812,-1.03044021,-0.000709483458,-0.00239694118,0.000354741729,0.9997068,0.2956148,0.009933249,0.00381053,0.0068904147,0,0
406,-0.0119878575,0.02490255,-1.03423536,-0.000236494481,-0.00221794727,0.000397486,0.9997069,0.29559627,0.009928429,0.003809724,0.0068857437,0,0
407,-0.0111574112,0.02718106,-1.03826725,-7.88314937e-05,-0.001803541,0.00106422522,0.999707,0.29558095,0.009925144,0.003809082,0.006878942,0,0
408,-0.01267096,0.0261501968,-1.03391457,-2.62771646e-05,-0.0020201474,-0.00106422522,0.9997071,0.2955733,0.009919335,0.003807477,0.0068759485,0,0
409,-0.0149658406,0.0267831385,-1.03099883,0.000375628064,-0.00280183274,-0.00103876716,0.99970734,0.29555273,0.009912172,0.0038057433,0.006873999,0,0
410,-0.0175211653,0.0261803176,-1.03018963,0.00106422522,-0.002352911,0.00106422522,0.9997076,0.29551998,0.00990537,0.0038042485,0.0068720155,0,0
411,-0.0177218989,0.0261421371,-1.0307337,0.00106422522,-0.00184852874,0.00209802622,0.99970776,0.29548827,0.009899419,0.0038032492,0.00687006,0,0
412,-0.0159984455,0.0275942534,-1.033031,-0.00113802624,-0.002035143,0.00212845043,0.9997079,0.29545206,0.0098947985,0.003803166,0.0068681575,0,0
413,-0.0162377637,0.025799647,-1.03526163,-0.00212845043,-0.00245208968,0.00106422522,0.999708,0.2954307,0.00989023,0.0038028068,0.0068659037,0,0
414,-0.01761962,0.0224345177,-1.03356373,0.00106422522,-0.00259107188,0.000720702461,0.9997081,0.2954388,0.009883923,0.0038008525,0.006863108,0,0
415,-0.0211726855,0.02603286,-1.03674126,0.00106422522,-0.00192791584,0.00106422522,0.9997083,0.29543212,0.009879161,0.0037996827,0.0068567633,0,0
416,-0.0221942812,0.0282088686,-1.04024184,0.00106422522,-0.00206160545,-0.00106422522,0.9997084,0.29544765,0.0098748235,0.003798656,0.0068494035,0,0
417,-0.0191168431,0.02274931,-1.03441,0.000354741729,-0.00246091024,-0.00101684046,0.99970853,0.29546604,0.009869142,0.0037971332,0.006848933,0,0
418,-0.01809103,0.0246729478,-1.02742052,0.000118247241,-0.00212845043,0.00106422522,0.9997088,0.29542473,0.009862095,0.0037960224,0.006851356,0,0
419,-0.0184001345,0.0287321284,-1.0293225,3.94157469e-05,-0.000709483458,0.000354741729,0.999709,0.29536715,0.009855388,0.003795696,0.0068513295,0,0
420,-0.0191542115,0.0247140955,-1.03386271,0.000394185015,-0.000406679581,0.000118247241,0.9997091,0.29535022,0.009850009,0.0037952617,0.0068494515,0,0
421,-0.0171269253,0.0225609485,-1.034074,0.00106422522,-0.00106422522,3.94157469e-05,0.99970925,0.29535726,0.009845049,0.0037944934,0.0068474375,0,0
422,-0.0148235587,0.02493568,-1.02974987,0.000354741729,-0.00141896692,-0.000402216217,0.9997094,0.29534042,0.009839022,0.0037938685,0.0068478235,0,0
423,-0.0153578529,0.02654106,-1.023914,0.000118247233,-0.00224669767,-0.00106422522,0.99970967,0.29529816,0.009830567,0.0037930643,0.006851077,0,0
424,-0.0145593882,0.02430926,-1.02506113,-0.00106422522,-0.002522608,0.00212845043,0.9997099,0.29523572,0.009823944,0.0037931204,0.0068541085,0,0
425,-0.0131539106,0.0204728786,-1.0262574,-0.000354741729,-0.00155035278,0.000709483458,0.99971,0.29520386,0.009817718,0.0037927618,0.006855991,0,0
426,-0.0130109387,0.022612052,-1.02714443,0.000509489444,-0.00158100948,0.000465505116,0.9997102,0.2951807,0.009811716,0.003792308,0.00685503,0,0
427,-0.0154046873,0.02316235,-1.024836,0.00106422522,-0.00159122841,0.00212845043,0.99971044,0.29514998,0.009805034,0.0037915676,0.0068545495,0,0
428,-0.0162026044,0.0222064611,-1.02699614,0.000354741729,-0.00123989291,-0.00106422522,0.9997106,0.29514572,0.009798541,0.003790993,0.0068533644,0,0
429,-0.0148409726,0.0253058,-1.03113413,-0.00023649451,-0.00147752278,-0.00226246,0.99971074,0.29515228,0.009793448,0.0037908743,0.0068492475,0,0
430,-0.0153636569,0.0287803188,-1.03739631,-0.00212845043,-0.00155673281,-0.00106422522,0.99971074,0.2951424,0.009791006,0.0037915313,0.006842329,0,0
431,-0.01765377,0.0287991688,-1.04192507,-0.000709483458,-0.00106422522,0.00106422522,0.9997108,0.29513833,0.009789356,0.0037913262,0.006833501,0,0
432,-0.0195564646,0.0257130042,-1.03838909,-0.0006031533,-0.000354741729,0.00212845043,0.99971086,0.29512855,0.009786167,0.0037901448,0.006829037,0,0
433,-0.020353457,0.0256608445,-1.037536,-0.00212845043,-0.00121056219,0.000709483458,0.9997109,0.29510903,0.009782005,0.0037891816,0.0068263076,0,0
434,-0.0211074036,0.0271083023,-1.03513575,-0.000709483458,-0.00319267553,0.00031766342,0.9997111,0.29509127,0.009775753,0.0037875767,0.006823958,0,0
435,-0.01826627,0.0256376639,-1.03433561,-0.00130071968,-0.00212845043,0.00106422522,0.9997112,0.29506248,0.009770281,0.0037864612,0.0068233404,0,0
436,-0.015203339,0.0233570859,-1.03439438,-0.00149779848,-0.00123032369,0.00130924024,0.99971133,0.2950324,0.009765584,0.0037856463,0.0068232054,0,0
437,-0.0187396538,0.0201554876,-1.03376293,-0.00106422522,-0.00106422522,0.00106422522,0.99971145,0.29500732,0.009760395,0.0037845047,0.0068224557,0,0
438,-0.02154603,0.0202276111,-1.02997172,-0.000142676508,-0.00141896692,-0.000354741729,0.9997117,0.2949907,0.009753153,0.0037829156,0.0068223914,0,0
439,-0.0171103943,0.0267620683,-1.03098667,0.00106422522,-0.00153721415,-0.000118247233,0.9997119,0.2949721,0.009746505,0.0037821073,0.006820291,0,0
440,-0.0169339329,0.0263360534,-1.0373472,0.00106422522,-0.00106422522,0.00106422522,0.999712,0.29496375,0.009742751,0.0037820067,0.006815552,0,0
441,-0.0202930812,0.0226133186,-1.03279412,0.000190532228,-0.00011971299,0.000617658952,0.99971217,0.294953,0.009737503,0.0037812123,0.006814886,0,0
442,-0.0153906615,0.0230000112,-1.02802122,-0.00106422522,0.00106422522,-0.00106422522,0.99971235,0.29493174,0.009730777,0.0037806148,0.0068178433,0,0
443,-0.0113151157,0.0247565135,-1.02659309,-0.00180206413,-0.00106422522,-0.00106422522,0.9997125,0.29489663,0.009723723,0.003780521,0.0068211434,0,0
444,-0.0112586841,0.02290061,-1.02660525,-0.00212845043,-0.00185627025,-0.000146125356,0.99971265,0.29485208,0.009717219,0.003780512,0.0068238936,0,0
445,-0.0118909152,0.020654371,-1.0254699,-0.0007094836,-0.00106422522,0.00106422522,0.9997129,0.29481038,0.009710686,0.0037799985,0.0068257977,0,0
446,-0.0151941068,0.02202151,-1.02997434,-0.000236494525,-0.00212845043,0.0006079719,0.999713,0.29478472,0.009705409,0.0037797797,0.006823237,0,0
447,-0.02020142,0.0229655039,-1.03538215,-0.00106422522,-0.00354741723,-0.00106422522,0.9997131,0.29478425,0.009701269,0.003779663,0.006817494,0,0
448,-0.0186153185,0.0227918867,-1.033604,-0.00134582119,-0.00331092277,-0.000354741729,0.99971324,0.2947846,0.009696798,0.0037791114,0.0068143313,0,0
449,-0.0166217741,0.0206181277,-1.03024435,-0.00106422522,-0.00216786633,-0.00106422522,0.99971336,0.2947797,0.009691328,0.00377816,0.0068141343,0,0
450,-0.0177476238,0.0169638544,-1.026032,-0.000354741729,-0.00212845043,-0.000354741729,0.99971354,0.29476425,0.009684791,0.0037769368,0.0068159252,0,0
451,-0.0150304586,0.0170478467,-1.021861,-0.000118247241,-0.002597374,-0.000291823817,0.9997138,0.29473692,0.00967753,0.0037761007,0.006819416,0,0
452,-0.0141247362,0.0208193343,-1.0227493,-3.94157469e-05,-0.00319267553,-0.00106422522,0.99971396,0.294701,0.009670641,0.003775986,0.006820665,0,0
453,-0.0156131936,0.0248434246,-1.03183448,0.000388143,-0.00212845043,0.000354741729,0.99971414,0.29467034,0.00966697,0.0037766332,0.0068152095,0,0
454,-0.0139934607,0.0286261942,-1.03453732,0.00106422522,-0.00212845043,0.0008277307,0.9997142,0.29465747,0.009663756,0.0037768448,0.0068090404,0,0
455,-0.013290789,0.03167748,-1.03267133,0.000354741729,-0.00248319213,0.00106422522,0.9997144,0.2946308,0.009659436,0.0037766907,0.006805491,0,0
456,-0.0141958883,0.0318807773,-1.03107274,-0.000454800145,-0.002956181,0.00153190212,0.9997145,0.29458863,0.009654096,0.003776228,0.0068039927,0,0
457,-0.0151486294,0.0293443743,-1.02826118,-0.00106422522,-0.00240436057,0.00212845043,0.9997147,0.29453805,0.00964782,0.0037753687,0.0068047657,0,0
458,-0.0180703755,0.0280106235,-1.0256964,-0.00160784158,-0.00186567882,0.000709483458,0.9997149,0.29448965,0.009640274,0.003774246,0.006806133,0,0
459,-0.0169284064,0.0251246337,-1.02842224,-0.00212845043,-0.00168611808,-0.000459448842,0.9997151,0.2944703,0.009633943,0.0037734502,0.0068059484,0,0
460,-0.016384989,0.0222095121,-1.03209782,-0.000709483458,-0.00127152272,-0.00106422522,0.99971515,0.29448515,0.009629162,0.0037724557,0.0068025556,0,0
461,-0.0175059345,0.022865409,-1.03381121,-0.0003333828,-0.00219754968,0.000709483458,0.9997152,0.2944928,0.009625789,0.0037717887,0.0067975707,0,0
462,-0.0144616142,0.0247116461,-1.03389406,-0.00106422522,-0.002860967,0.00106422522,0.99971527,0.2944861,0.009622804,0.0037715253,0.0067942487,0,0
463,-0.01344684,0.0259781014,-1.02968991,-0.00130375545,-0.00201788079,0.000354741729,0.99971545,0.29445615,0.009617837,0.0037708862,0.0067941234,0,0
464,-0.0134341037,0.0244471282,-1.02991617,-0.00106422522,-0.00138211029,-0.0003912033,0.99971557,0.29442918,0.009612448,0.003770146,0.0067939525,0,0
465,-0.0153829828,0.0211698767,-1.036502,-0.000354741729,-0.00152492861,-0.00106422522,0.9997156,0.29443476,0.009609089,0.0037695193,0.0067894366,0,0
466,-0.0179857332,0.019100897,-1.03674412,0.00038209575,-0.002282018,-0.00106422522,0.9997157,0.2944548,0.009605827,0.003768456,0.0067846025,0,0
467,-0.01641191,0.0184112359,-1.03210485,0.00106422522,-0.00253438135,-0.000354741729,0.9997158,0.29446203,0.009601383,0.0037671798,0.006783189,0,0
468,-0.0132831363,0.0217620786,-1.03137219,0.000454611261,-0.002263761,0.000392073271,0.9997159,0.29443553,0.009597302,0.0037668415,0.006782482,0,0
469,-0.0114264106,0.024669392,-1.02640784,-0.00106422522,-0.002173554,0.00106422522,0.99971616,0.29437092,0.009591629,0.0037668126,0.0067854696,0,0
470,-0.0134116681,0.0238481313,-1.0271945,0.000354741729,-0.00214348477,0.000354741729,0.99971634,0.29432246,0.009584937,0.003766242,0.006786659,0,0
471,-0.0174913891,0.0227605756,-1.03185129,0.000118247233,-0.00213346188,-0.00106422522,0.9997165,0.29430324,0.009579543,0.0037658273,0.0067841527,0,0
472,-0.0204789,0.0225608181,-1.02640486,-0.00106422522,-0.00248486269,-0.00145957293,0.99971676,0.29428062,0.009572514,0.0037650615,0.0067848815,0,0
473,-0.0201726537,0.0229825135,-1.02751911,-0.000354741729,-0.00319267553,-0.00106422522,0.99971694,0.29426545,0.009565953,0.0037645034,0.006784262,0,0
474,-0.0160015617,0.0223092753,-1.02886713,-0.0006859228,-0.00106422522,-0.000354741729,0.99971706,0.2942503,0.009561237,0.0037644766,0.0067837476,0,0
475,-0.0123325512,0.0211083,-1.02459633,-0.00212845043,-0.000696320843,-0.000418203766,0.9997172,0.29422024,0.009555869,0.0037645607,0.006786958,0,0
476,-0.0130626736,0.0215217769,-1.028381,-0.00137581327,-0.00212845043,-0.00106422522,0.9997173,0.2941989,0.009550983,0.0037646499,0.0067861862,0,0
477,-0.0147708915,0.0187299158,-1.03566468,0.00106422522,-0.00319267553,0.00212845043,0.99971735,0.29420277,0.009548769,0.0037644017,0.0067802207,0,0
478,-0.0146892555,0.0189386178,-1.04085958,0.00177634531,-0.00303146988,0.00284703681,0.99971735,0.29421854,0.009548576,0.0037641262,0.0067719473,0,0
479,-0.0144992834,0.0235654768,-1.04226577,0.00106422522,-0.00212845043,0.00106422522,0.99971735,0.29422426,0.009547831,0.0037637327,0.006764005,0,0
480,-0.0154125215,0.0267353673,-1.03671229,0.000815755629,-0.00177370862,0.00141896692,0.9997175,0.2942004,0.009543917,0.0037625781,0.00676043,0,0
481,-0.0137638086,0.0284430385,-1.02688587,0.00106422522,-0.00165546138,0.00106422522,0.9997177,0.29415062,0.009535865,0.003760807,0.00676321,0,0
482,-0.0107728317,0.02347841,-1.02572632,0.000354741729,-0.00212845043,0.00165938435,0.99971795,0.29410315,0.009528384,0.0037596943,0.0067677894,0,0
483,-0.01010136,0.0213352516,-1.03022254,-0.0004277196,-0.000709483458,0.00319267553,0.99971807,0.2940536,0.009523924,0.003759548,0.0067684148,0,0
484,-0.010203057,0.0253409166,-1.03172123,-0.00106422522,-0.00111136062,0.000354741671,0.9997182,0.29402104,0.009519082,0.0037593942,0.006766767,0,0
485,-0.0117018,0.024071971,-1.03222084,-0.000354741729,-0.00319267553,-0.0005912362,0.99971837,0.29401726,0.009513379,0.0037584926,0.0067647733,0,0
486,-0.0126896622,0.0247883126,-1.03759575,-0.000338316866,-0.00212845043,-0.000197078756,0.9997184,0.29401538,0.009510091,0.0037580477,0.006759185,0,0
487,-0.01725072,0.0229112078,-1.04215431,-0.00106422522,-0.00248319213,-6.569291e-05,0.9997184,0.2940231,0.009508298,0.003757634,0.0067520724,0,0
488,-0.0203986783,0.0221227463,-1.03830278,0.00106422522,-0.00224669767,-2.18976438e-05,0.99971855,0.29403794,0.009504261,0.0037559455,0.006747015,0,0
489,-0.0139610171,0.0260916967,-1.03571689,0.00183003093,-0.00216786633,0.000702184334,0.9997187,0.29403657,0.009499922,0.003754795,0.006744386,0,0
490,-0.0108385682,0.02367119,-1.03566873,0.00106422522,-0.002141589,-0.000120680314,0.9997188,0.29403037,0.009496051,0.00375416,0.00674392,0,0
491,-0.0110998349,0.0231898744,-1.03435051,-0.000354741729,-0.00213283,-0.00212845043,0.9997189,0.29401103,0.00949167,0.0037537655,0.006744249,0,0
492,-0.0113496846,0.0249825623,-1.03228343,-0.000118247233,-0.00283939368,-0.000709483458,0.9997191,0.29397017,0.009486551,0.0037533485,0.0067445613,0,0
493,-0.0135488538,0.0223249178,-1.03533792,0.000670067733,-0.00236543152,-0.000236494481,0.9997192,0.2939424,0.009482402,0.0037528921,0.0067429324,0,0
494,-0.0129798269,0.0211135149,-1.03749549,0.0002233559,-0.00149796065,0.000233102342,0.9997193,0.2939232,0.009479591,0.0037527226,0.006740589,0,0
495,-0.0105115054,0.0241276827,-1.028449,-0.00106422522,-0.002273029,0.00106422522,0.9997195,0.29386905,0.009473942,0.003752366,0.006743954,0,0
496,-0.0124556581,0.0220399573,-1.01973689,-0.0006507914,-0.00288612675,0.000354741729,0.9997198,0.2938018,0.00946447,0.0037512665,0.0067516374,0,0
497,-0.0155451149,0.016786756,-1.02594745,0.00106422522,-0.00212845043,0.000118247241,0.99972004,0.29377624,0.009457284,0.0037505038,0.0067532975,0,0
498,-0.0169004556,0.0160122514,-1.02883148,-0.000354741729,-0.001452542,0.0008616827,0.99972016,0.29376286,0.009452701,0.0037506178,0.006752517,0,0
499,-0.0145853087,0.0229155421,-1.02507269,-0.0008277307,-0.00106422522,0.00212845043,0.99972034,0.29372472,0.009447068,0.0037508958,0.0067529166,0,0
500,-0.0139763532,0.0240773167,-1.03098118,-0.00106422522,-0.00212845043,0.00208990532,0.99972045,0.2937038,0.009442652,0.0037514537,0.0067507294,0,0
501,-0.0180051383,0.0208838452,-1.038159,-0.00153703871,-0.000709483458,0.00106422522,0.99972045,0.29371253,0.009440146,0.0037516388,0.0067449673,0,0
502,-0.0188597869,0.0238883644,-1.03729641,-0.00212845043,-0.000236494481,0.00106422522,0.9997205,0.29371542,0.009436945,0.0037513394,0.0067397268,0,0
503,-0.0181681067,0.0274940375,-1.03163779,-0.00106422522,-0.00171693671,0.00114768068,0.9997207,0.29370564,0.0094307605,0.003750203,0.006737838,0,0
504,-0.0177747849,0.0275566056,-1.0312165,0.000354741729,-0.004256901,0.00106422522,0.9997209,0.2937012,0.009424062,0.003748956,0.0067363316,0,0
505,-0.01829472,0.0248105358,-1.03058779,-0.00023649451,-0.00106422522,0.00106422522,0.99972105,0.29368374,0.009418544,0.0037480993,0.006735815,0,0
506,-0.0184680317,0.02454622,-1.02533257,-0.00114305678,0.000971333764,0.000354741729,0.9997213,0.2936516,0.0094117755,0.0037473445,0.006738144,0,0
507,-0.0160843953,0.02250499,-1.02260435,-0.000381018937,0.00106422522,0.0003791514,0.99972147,0.29363206,0.009404265,0.0037465754,0.006741595,0,0
508,-0.0134994863,0.0226383824,-1.02527571,-0.000481748051,-0.00106422522,0.00106422522,0.99972165,0.29361963,0.009398484,0.0037466541,0.006742716,0,0
509,-0.0147537356,0.0212180018,-1.028282,-0.00157954963,-0.000354741729,-0.00106422522,0.9997217,0.29361695,0.009393913,0.003746967,0.0067421347,0,0
510,-0.0176132247,0.01993074,-1.02684271,-0.0008812582,-0.000982078,-0.00182621321,0.9997219,0.2936239,0.009388337,0.0037465575,0.0067414446,0,0
511,-0.0154739395,0.0208037365,-1.02587461,0.000770472456,-0.00319267553,-0.00106422522,0.999722,0.2936352,0.009382658,0.0037460222,0.0067406273,0,0
512,-0.0157374069,0.020280933,-1.0278306,0.00212845043,-0.00212845043,0.000354741729,0.9997222,0.29363713,0.00937858,0.0037457498,0.006738259,0,0
513,-0.0172900725,0.0204321872,-1.02815711,0.0004908934,-0.0007094836,0.000118247233,0.99972224,0.293622,0.009375241,0.0037460506,0.0067367526,0,0
514,-0.0163427833,0.0193432812,-1.02875423,-0.00319267553,-0.0005912362,-0.00106422522,0.9997223,0.29359603,0.0093721775,0.0037469743,0.006737445,0,0
515,-0.0152132185,0.0193058327,-1.02813947,-0.00106422522,-0.00161604572,-0.001406861,0.9997224,0.29358622,0.009367441,0.003746734,0.0067370147,0,0
516,-0.0136973746,0.01945611,-1.02891111,-0.000354741729,-0.00231239037,-0.00106422522,0.99972254,0.29357666,0.009363207,0.0037464865,0.006735789,0,0
517,-0.018400427,0.0230869334,-1.03079593,-0.0006460906,-0.00218976359,0.00106422522,0.99972266,0.29353407,0.009359855,0.0037466697,0.0067321374,0,0
518,0.2254746,0.0999808,-1.11801279,-0.00106422522,-0.030528225,-0.0776205,0.9997207,0.29416808,0.009382878,0.0037589797,0.0067077503,0,0
519,0.199507162,0.109661572,-1.119253,-0.590645,-0.0619683675,-0.213909253,0.9997098,0.290839,0.0095158545,0.0039234497,0.0070515717,0,0
520,-0.07037912,0.00465281541,-0.957557,-0.8531539,0.0304266866,-0.6910369,0.9997014,0.28694436,0.009449051,0.0040642256,0.0076176627,0,0
521,-0.08856388,-0.202713385,-0.955253363,-0.462464958,0.299966216,-0.100155413,0.99970675,0.28285602,0.009363193,0.004010878,0.0076363543,0,0
522,0.0209344327,-0.3291271,-1.094785,-0.624542534,0.5859849,0.05352659,0.9997002,0.27769962,0.009556975,0.0041322485,0.00793377,0,0
523,0.188456014,-0.2963952,-1.12485671,-1.675038,1.05841494,-0.359248251,0.99966455,0.2652832,0.010035604,0.0048615937,0.010085415,0,0
524,0.213046536,-0.287926,-1.10818791,-2.74958539,1.72920287,-1.1584332,0.99962896,0.25513822,0.010002472,0.005870256,0.01366452,0,0
525,0.146699116,-0.377876371,-1.12623191,-3.79241967,2.29512477,-1.837038,0.9996123,0.2507589,0.009509461,0.0068871845,0.017086672,0,0
526,0.0409244448,-0.6337713,-0.9432817,-5.234764,3.177995,-1.83833349,0.99961036,0.24486269,0.00917113,0.008197057,0.021754995,0,0
527,-0.035023883,-0.5286399,-0.852024853,-6.979845,4.501745,-1.204487,0.9996245,0.23580693,0.008601601,0.009662867,0.02984838,0,0
528,-0.09614728,0.0575106554,-1.31932724,-7.46611261,5.01961946,-0.425263315,0.9996259,0.22985585,0.007972989,0.011309199,0.04093825,0,0
529,-0.0289566424,0.127080381,-1.46467817,-4.95628738,4.62182,0.6755705,0.99966365,0.23359439,0.0075085233,0.010235213,0.04270459,0,0
530,0.166780069,-0.274697155,-1.01719749,-1.56305563,4.1845336,0.384114385,0.9996968,0.25341368,0.0075750765,0.0068840412,0.030655492,0,0
531,0.330170184,-0.48300454,-0.884801567,0.3268142,2.67708921,-1.25155246,0.99971867,0.28284782,0.0072269044,0.004984279,0.02316682,0,0
532,0.386098385,-0.5569976,-1.08204329,1.12172568,0.384185284,-2.15329,0.9997768,0.30864704,0.0066653695,0.003989899,0.019011263,0,0
533,0.4167854,-0.565711439,-1.35384512,1.44308937,1.15894127,-2.30523276,0.9997898,0.31892282,0.007987971,0.004073957,0.019658899,0,0
534,0.413993567,-0.551526248,-1.55382073,0.1344688,1.41648376,-1.94721758,0.99978846,0.30127972,0.009142525,0.004248967,0.020717014,0,0
535,0.349911928,-0.556075156,-1.52607822,-2.27424932,1.51652086,-1.23829854,0.99979025,0.27220595,0.008734198,0.004233947,0.021670036,0,0
536,0.384866476,-0.630345345,-1.41298962,-4.007872,1.72546387,-0.617452145,0.9997817,0.2565833,0.007829471,0.0048228875,0.025854873,0,0
537,0.402051836,-0.740063,-1.45553434,-6.2328124,2.36056972,-0.5445957,0.9997615,0.24277948,0.0077164336,0.006912962,0.038148228,0,0
538,0.3296553,-0.8676186,-1.49152577,-9.526471,2.90856671,-1.18757951,0.999722,0.23570149,0.007270177,0.010694344,0.060216412,0,0
539,0.2316299,-0.869284332,-1.32562578,-13.5829039,2.38245845,-2.65450025,0.9996689,0.23833686,0.0063720127,0.016095065,0.0858364,0,0
540,0.111064136,-0.685432,-0.9780081,-17.7938442,0.772868335,-3.73731136,0.9996408,0.23863384,0.0054447697,0.02107603,0.106491975,0,0
541,0.08145497,-0.446739048,-0.4171485,-19.4329624,-0.8818076,-3.129449,0.9996346,0.23392482,0.004824167,0.02477978,0.12549727,0,0
542,0.0935579,-0.3492711,-0.145722672,-19.2465115,-0.9945507,-1.12403071,0.99961865,0.21690255,0.004832902,0.02963097,0.1513395,0,0
543,0.101335704,-0.4683117,-0.176666677,-15.290432,-0.3027828,0.7761052,0.99959266,0.19345228,0.005078333,0.035824154,0.19539644,0,0
544,0.1779843,-0.5550297,-0.08541884,-13.3062439,-0.152010411,1.79899025,0.9995515,0.16648032,0.0054905917,0.043601148,0.25672004,0,0
545,0.223065078,-0.541129649,-0.0263570622,-12.760849,-0.0407373719,2.77174687,0.9994936,0.13893525,0.0060791904,0.053166524,0.33384332,0,0
546,0.215142787,-0.5617242,0.035973426,-12.6287146,-0.07530419,3.55042338,0.999433,0.116074905,0.0067776814,0.063443765,0.41759816,0,0
547,0.244403064,-0.564845562,0.135038018,-12.1391134,-0.229432628,3.72165179,0.99938315,0.09987437,0.007537764,0.07251805,0.4904048,0,0
548,0.310959876,-0.4972011,0.227629855,-10.8513823,-0.24533461,3.52083015,0.9993487,0.08873146,0.008314709,0.078617714,0.5398107,0,0
549,0.388646752,-0.4222441,0.338734716,-9.06596,-0.225448608,3.193864,0.9993364,0.08157858,0.008997602,0.080548145,0.5612156,0,0
550,0.421866626,-0.3896087,0.414506644,-7.55487633,-0.0907581747,2.87735176,0.9993424,0.07771757,0.009453273,0.079064645,0.562175,0,0
551,0.408525854,-0.383287549,0.4744319,-6.85500956,0.08042669,2.64804268,0.99934185,0.075624935,0.009772974,0.07800653,0.56487143,0,0
552,0.384547681,-0.373368,0.514263749,-6.757587,0.140680984,2.49746513,0.9993199,0.073754966,0.010160624,0.07976805,0.57858515,0,0
553,0.396086216,-0.310165644,0.5573262,-6.545259,0.0163858738,2.158158,0.9992965,0.07260185,0.010489928,0.08197928,0.58684814,0,0
554,0.419463634,-0.2191112,0.5611009,-5.817856,-0.165168822,1.62255847,0.9993087,0.07397799,0.010321667,0.07978555,0.5668889,0,0
555,0.41260767,-0.145139933,0.5109269,-4.89925051,-0.268256068,1.19606078,0.9993637,0.07827594,0.009542353,0.071992986,0.5155878,0,0
556,0.449059337,-0.0749099255,0.515523851,-4.162392,-0.2100309,0.945698738,0.99943084,0.0836975,0.008592823,0.062365327,0.4553805,0,0
557,0.519803643,-0.0212264862,0.585252762,-3.4893086,0.101329945,0.6327268,0.9995011,0.09010743,0.0075988434,0.052081503,0.3931944,0,0
558,0.508391559,-0.00642445358,0.6561845,-2.66933632,0.394548982,-0.06827281,0.99958146,0.10077619,0.00633341,0.040528055,0.31585228,0,0
559,0.42239356,-0.045761276,0.6690862,-1.84509814,0.310660928,-0.9156425,0.9996477,0.11524838,0.0051317713,0.031272776,0.2454026,0,0
560,0.336435884,-0.103795432,0.599493563,-1.09854567,-0.200460017,-1.46983111,0.9996835,0.12797113,0.0043022567,0.026036346,0.19915657,0,0
561,0.2827182,-0.161226079,0.542279065,-0.266144723,-0.945515335,-1.62972891,0.9997055,0.13535309,0.0037864018,0.022795783,0.16544838,0,0
562,0.302084446,-0.22496599,0.629001856,0.667594433,-1.37159264,-1.58440983,0.99974316,0.14521028,0.003501957,0.019191012,0.13728464,0,0
563,0.5110138,-0.368445724,1.07066989,1.497828,-0.8083918,-1.708717,0.9997732,0.1671606,0.0037102515,0.015792543,0.12601498,0,0
564,0.7888275,-0.604260564,1.58768427,2.0874548,0.412704378,-1.86260593,0.9997545,0.18252967,0.004836377,0.015470576,0.14154913,0,0
565,0.846926868,-0.6885621,1.56926715,2.51032233,0.152112529,-2.010392,0.99974847,0.19206871,0.0060138,0.013807891,0.13339856,0,0
566,0.679607153,-0.539416552,1.07842767,2.46255565,-1.34910667,-2.3512516,0.99977654,0.19293575,0.005896109,0.01077134,0.102793775,0,0
567,0.488905519,-0.374467,0.611754537,1.95070446,-1.81013668,-2.55568528,0.99979657,0.18713374,0.005890256,0.009272867,0.08548542,0,0
568,0.463912517,-0.311834067,0.4485471,1.61371338,-1.06383359,-2.467034,0.9997992,0.18344323,0.006499394,0.009014953,0.08008774,0,0
569,0.344741672,-0.38177672,0.325948,1.30237281,0.335361451,-2.25408244,0.99979633,0.18198106,0.007308318,0.00924337,0.07793015,0,0
570,0.191899583,-0.5986131,0.254157156,0.286196947,1.1518898,-1.55662453,0.9998135,0.17250326,0.006980421,0.008458067,0.06784324,0,0
571,0.2996436,-0.680331945,0.4768089,-0.258633226,0.442140818,-0.985005558,0.9998347,0.16497263,0.00609758,0.0070840847,0.055967808,0,0
572,0.46625492,-0.548717439,0.7611499,0.162462875,-0.219067931,-0.493999571,0.9998434,0.16128337,0.0056899493,0.006324216,0.05121409,0,0
573,0.519676149,-0.457645416,0.868625462,0.443305969,-0.07195842,0.228742063,0.99984795,0.1543135,0.0053092404,0.0059861895,0.05018966,0,0
574,0.526741,-0.4217542,0.824698031,0.4978988,-0.161625937,0.369264036,0.9998585,0.1465013,0.004578945,0.005768918,0.049430404,0,0
575,0.536420166,-0.3796798,0.730954,0.32063368,-0.463956743,0.209644973,0.9998575,0.13490689,0.0041775974,0.0058173,0.056480706,0,0
576,0.5139304,-0.351494819,0.6769195,-0.0172817111,-0.55692935,0.120254986,0.9998243,0.11405215,0.0046439553,0.0063291076,0.08227,0,0
577,0.47713694,-0.35560894,0.6740448,-0.4208084,-0.449216217,-0.05995217,0.99978095,0.09472551,0.0059552705,0.0072478782,0.11175082,0,0
578,0.475451916,-0.365443856,0.703197241,-0.8802607,-0.4001864,-0.482922,0.9997592,0.08591792,0.0070721176,0.0076311305,0.11709425,0,0
579,0.528275669,-0.386788577,0.7269121,-1.1859504,-0.4423755,-1.00596881,0.99975735,0.08578073,0.007405765,0.007356248,0.1088442,0,0
580,0.603989065,-0.382998556,0.7439316,-1.18568134,-0.312413424,-1.439634,0.99978083,0.09289449,0.00662517,0.0062068105,0.08967846,0,0
581,0.5818636,-0.370830268,0.765067041,-0.9369177,0.0934533253,-1.74807966,0.9998145,0.106499635,0.0051121064,0.004697229,0.06529969,0,0
582,0.4621837,-0.42064786,0.75665,-0.6581791,0.493024826,-1.89665663,0.99982846,0.1211489,0.0042178044,0.004128224,0.055363506,0,0
583,0.382088572,-0.4673644,0.74147445,-0.6159943,0.525468647,-1.78016317,0.9998269,0.13108678,0.0041744662,0.004511193,0.059910495,0,0
584,0.281659722,-0.513535559,0.7284407,-0.8655059,0.301799,-1.391202,0.9998201,0.13270529,0.0043587596,0.0050632665,0.06706346,0,0
585,0.2561587,-0.7237501,0.598282337,-1.00472558,0.07044662,-1.008972,0.99982506,0.13354474,0.004111671,0.0050825053,0.065704025,0,0
586,0.297951341,-0.797565162,0.588424861,-1.0326854,0.248743191,-0.310782582,0.99982864,0.13137025,0.0037895145,0.005116444,0.0655911,0,0
587,0.3193692,-0.641831636,0.7399242,-1.15587759,0.437656134,0.520041764,0.9998307,0.12698703,0.0034236785,0.005639063,0.0750506,0,0
588,0.349294931,-0.5503697,0.7541284,-1.18204248,0.344895482,0.8498397,0.99981254,0.118385576,0.0034485105,0.007295298,0.10801896,0,0
589,0.3361582,-0.499700069,0.7191496,-1.19182837,0.29198128,0.9253624,0.99977225,0.09944931,0.004465948,0.0095416,0.1566328,0,0
590,0.341707677,-0.462790638,0.7291371,-1.24156141,0.107969344,0.9604694,0.9997355,0.08475375,0.006158056,0.0123001905,0.21599548,0,0
591,0.3658557,-0.44479087,0.7645301,-1.2059921,-0.09171724,0.980685532,0.9997085,0.07600676,0.0076638875,0.01432375,0.26762393,0,0
592,0.3665808,-0.444162041,0.7979749,-1.04656315,-0.22284244,0.9271181,0.9996955,0.072147824,0.008592803,0.014873951,0.2902543,0,0
593,0.371705323,-0.4371165,0.8271895,-0.9008325,-0.3385634,0.894718,0.99969,0.070936754,0.009086402,0.014551613,0.29367617,0,0
594,0.407755941,-0.396844834,0.846367836,-0.885601342,-0.37181592,0.9342912,0.999682,0.070013046,0.009464188,0.014196836,0.2973422,0,0
595,0.459486365,-0.35461235,0.838763237,-0.8581756,-0.21120511,0.870858133,0.99967974,0.070177436,0.0095985625,0.013494968,0.29291087,0,0
596,0.4570358,-0.345580429,0.7896789,-0.704299,0.044179868,0.6546058,0.99969524,0.07360808,0.009173688,0.0119298175,0.2639593,0,0
597,0.4288752,-0.340779424,0.752646863,-0.5802848,0.182874188,0.5133471,0.9997158,0.0790381,0.008476394,0.010223423,0.22772615,0,0
598,0.448134184,-0.331366569,0.7725294,-0.4609035,0.180151284,0.450652152,0.99973387,0.08518827,0.0077720853,0.008772808,0.19588275,0,0
599,0.459111124,-0.330182076,0.795433,-0.209328935,0.119647026,0.3236861,0.99975836,0.094181076,0.0068464684,0.007155881,0.15755391,0,0
600,0.455608636,-0.3336935,0.7944412,0.039129395,0.0349159576,0.21289891,0.9997895,0.10758746,0.005682781,0.00545202,0.11588467,0,0
601,0.458021879,-0.328028053,0.786949158,0.199992016,-0.04050838,0.138721958,0.99982274,0.1264144,0.0044644764,0.003951588,0.079515345,0,0
602,0.462244272,-0.319303632,0.7820104,0.317111671,-0.07983949,0.05369023,0.99985087,0.15063132,0.0034508249,0.0028750899,0.05418316,0,0
603,0.467069715,-0.32355693,0.783782065,0.394463658,-0.0922403857,-0.036733482,0.9998616,0.17456333,0.0028977229,0.002364677,0.042032607,0,0
604,0.461516738,-0.337832779,0.7926734,0.4411774,-0.0970835,-0.14491789,0.9998569,0.19469112,0.0027648427,0.002270203,0.038445387,0,0
605,0.4425759,-0.354798436,0.796613753,0.466681451,-0.0827344954,-0.255120367,0.99985015,0.20950408,0.0028835244,0.0023585318,0.038999066,0,0
606,0.4230787,-0.375590354,0.7842553,0.427292675,-0.0626976,-0.29788515,0.99985033,0.21818088,0.0029938137,0.0024171981,0.039613415,0,0
607,0.417230636,-0.390007973,0.7744393,0.310933232,-0.06807985,-0.2578646,0.9998564,0.22337048,0.0028860455,0.0023555805,0.03795234,0,0
608,0.4160951,-0.399045616,0.779142559,0.225675568,-0.06987394,-0.209050253,0.99986607,0.22811966,0.002548024,0.0022262852,0.034971423,0,0
609,0.4189718,-0.409382373,0.7821751,0.225280941,-0.04244737,-0.197390437,0.9998742,0.2315989,0.0022330882,0.0021614672,0.033912193,0,0
610,0.4261156,-0.405178219,0.77163,0.228342071,-0.0226629246,-0.189246938,0.99987364,0.22473389,0.0022202474,0.0022724268,0.039028283,0,0
611,0.4296362,-0.391895324,0.7624183,0.185374483,-0.009682759,-0.164538443,0.9998684,0.20988801,0.0024674714,0.0024855186,0.04997664,0,0
612,0.4301587,-0.387630463,0.7601616,0.1561528,0.0102526,-0.151690632,0.9998663,0.20219205,0.0026703747,0.002587162,0.05712791,0,0
613,0.423334152,-0.395160675,0.765919745,0.139317408,0.0147692682,-0.128961459,0.9998673,0.20513237,0.0026806926,0.0025282933,0.057237793,0,0
614,0.41699028,-0.405483246,0.7719081,0.08936288,-0.00962132,-0.0568220764,0.9998684,0.21347028,0.0025833505,0.0024339582,0.054841585,0,0
615,0.424641281,-0.4064827,0.766417265,0.0258854683,-0.0301674753,0.0239830557,0.9998685,0.22337572,0.0024672882,0.002375208,0.052021366,0,0
616,0.4338648,-0.399003357,0.760355234,-0.0158486888,-0.0224717855,0.06049612,0.999867,0.2333913,0.0023916718,0.002369474,0.049301997,0,0
617,0.434497923,-0.3937433,0.754265547,-0.0443044864,-0.0170686226,0.067700766,0.99986345,0.24218352,0.0023949642,0.0024103709,0.04690316,0,0
618,0.430477172,-0.395245165,0.754839838,-0.0938755646,-0.02200766,0.0782613754,0.99985784,0.24922301,0.002480805,0.0024790287,0.04484522,0,0
619,0.429299682,-0.395420283,0.761541665,-0.113946676,-0.01655917,0.0601423346,0.9998526,0.25795704,0.0025820397,0.0025135716,0.042286336,0,0
620,0.432487935,-0.3894565,0.7681701,-0.08658183,0.00263933581,0.007986228,0.9998506,0.27388236,0.0025894681,0.0024515942,0.038434055,0,0
621,0.431923062,-0.3845389,0.7651713,-0.06610849,0.0147147058,-0.0289099365,0.99984807,0.29651397,0.0025078694,0.002365075,0.034494974,0,0
622,0.427503,-0.384690046,0.758963346,-0.0525439531,0.0190945715,-0.0483034961,0.9998417,0.32124212,0.0024158799,0.0023529688,0.03182077,0,0
623,0.427331716,-0.3884839,0.7661714,-0.0341875143,0.0187808182,-0.0572512038,0.99983317,0.34410295,0.0023509848,0.0024341482,0.030772535,0,0
624,0.432482958,-0.386493325,0.7724803,-0.00678419555,0.00626027351,-0.06803809,0.9998268,0.36332223,0.00228926,0.0025515945,0.030636579,0,0
625,0.432409674,-0.383713931,0.7695377,0.0133472374,0.00421520835,-0.08582339,0.9998251,0.37960374,0.0021879415,0.0026246596,0.030219339,0,0
626,0.43385008,-0.384577841,0.7692079,0.0158008132,0.022334829,-0.100265622,0.99982774,0.39412218,0.0020371007,0.002615002,0.028913155,0,0
627,0.436771631,-0.3803085,0.7718649,0.0272609238,0.0493044667,-0.121043079,0.9998317,0.40666077,0.0018936961,0.0025595864,0.027228482,0,0
628,0.4343275,-0.382791638,0.772425,0.0413684733,0.061132282,-0.132580534,0.9998333,0.4146634,0.0018340024,0.002525128,0.026177598,0,0
629,0.427978963,-0.3891532,0.767077863,0.0244317427,0.05336841,-0.119044013,0.9998305,0.4169218,0.001872988,0.0025366745,0.026113579,0,0
630,0.4266766,-0.3938779,0.7605755,0.00175856322,0.0546826124,-0.101406395,0.99982435,0.41729435,0.001968004,0.002562784,0.026489822,0,0
631,0.42607972,-0.395127267,0.7615004,0.00590731343,0.062924996,-0.09907461,0.99981713,0.42166767,0.002053942,0.0025593403,0.02642006,0,0
632,0.414162,-0.3981479,0.7688074,0.00551652163,0.0550302081,-0.09545941,0.9998098,0.4318784,0.0020857898,0.0025277694,0.025631139,0,0
633,0.407096982,-0.406316251,0.770592034,-0.01909092,0.04423955,-0.07296985,0.9998023,0.44541928,0.0020628916,0.0024950302,0.024424385,0,0
634,0.4099503,-0.414247364,0.772326231,-0.0276481435,0.04667327,-0.0512836538,0.9997951,0.46021307,0.0020140181,0.0024668975,0.023045842,0,0
635,0.4095993,-0.413961381,0.780716836,-0.0177298486,0.0510319322,-0.0373148322,0.9997883,0.4751509,0.0019701752,0.0024390044,0.021650776,0,0
636,0.408831269,-0.404263169,0.7797702,-0.0318060964,0.04255205,-0.0103098275,0.99978083,0.48841187,0.0019485487,0.00241921,0.020416906,0,0
637,0.416387767,-0.3961476,0.773758,-0.0542352647,0.02518101,0.02281428,0.99977136,0.49820757,0.0019729263,0.0024166533,0.019517181,0,0
638,0.422324568,-0.391977578,0.769800842,-0.0397176668,0.0115863457,0.0271155536,0.9997609,0.5058973,0.002051625,0.002399932,0.018712848,0,0
639,0.421536565,-0.390587568,0.7675052,-0.00614438765,-0.00110426883,0.0175523181,0.9997529,0.5165679,0.002128017,0.0023223911,0.017506586,0,0
640,0.4233898,-0.391589075,0.7750408,-0.0169472825,-0.0159767251,0.0253615677,0.99974597,0.5325684,0.0021467512,0.0022170888,0.016030509,0,0
641,0.425635129,-0.390946358,0.7814589,-0.0549581945,-0.0283837859,0.0386069,0.99973667,0.5518131,0.0021181926,0.0021416354,0.014648258,0,0
642,0.42443046,-0.387802452,0.7710657,-0.06798324,-0.03180999,0.0352176949,0.99972457,0.57234186,0.0020716637,0.0021041378,0.0134236,0,0
643,0.4191461,-0.3932649,0.7676013,-0.0691322461,-0.0286951568,0.0216720011,0.9997101,0.592894,0.0020265963,0.0020948013,0.01238977,0,0
644,0.417221874,-0.39801538,0.7721431,-0.08051225,-0.02978533,0.020349443,0.9996933,0.6122905,0.0019869998,0.0021107593,0.01157626,0,0
645,0.416906,-0.392762929,0.771703959,-0.09104568,-0.0305034611,0.0220370423,0.99967456,0.629957,0.0019512344,0.0021440121,0.010914901,0,0
646,0.418753833,-0.387268633,0.772045851,-0.0924283639,-0.0296786129,0.0126668066,0.99965435,0.6458287,0.0019239391,0.0021828744,0.010346837,0,0
647,0.4291354,-0.38527444,0.773299158,-0.100338839,-0.0336605646,0.00847917,0.9996324,0.6599172,0.0019056685,0.002223552,0.009860618,0,0
648,0.4306428,-0.385260731,0.7737169,-0.0905597,-0.0247003734,0.000697939948,0.9996096,0.6731973,0.0018948638,0.0022481724,0.009377034,0,0
649,0.4228445,-0.387372047,0.7777624,-0.0454404652,-0.005395524,-0.021761341,0.999587,0.6874414,0.0018904193,0.0022364638,0.008832244,0,0
650,0.416501552,-0.39068,0.7870862,-0.0158563051,-0.0042817,-0.0217981916,0.99956214,0.70282376,0.0018821993,0.0022115158,0.008324997,0,0
651,0.415201038,-0.3865743,0.788403749,-0.03543848,-0.0230664779,0.0154374065,0.99953556,0.71757126,0.001850935,0.002196564,0.007886118,0,0
652,0.422417283,-0.378695339,0.7870526,-0.07140944,-0.0360681638,0.054454904,0.9995112,0.7299821,0.0018041992,0.002182384,0.00744172,0,0
653,0.4288917,-0.377859384,0.788067043,-0.0734669939,-0.03401671,0.06001116,0.9994882,0.738363,0.0018074877,0.0021609375,0.0070448606,0,0
654,0.423400074,-0.381975263,0.7828713,-0.04754721,-0.0301402137,0.0462546051,0.99946636,0.7420576,0.0019046032,0.0021085439,0.006731496,0,0
655,0.416035682,-0.3870907,0.7782097,-0.0396167636,-0.0327502079,0.05053763,0.9994494,0.744848,0.0020375447,0.001997956,0.006392515,0,0
656,0.420416832,-0.386679977,0.776981354,-0.0419396646,-0.039296072,0.06367178,0.9994354,0.7519,0.0021217917,0.0018470954,0.005937226,0,0
657,0.4309918,-0.383450627,0.771851838,-0.0203652382,-0.0340284519,0.0559886135,0.99941874,0.76499444,0.0021398866,0.0016901159,0.0053676427,0,0
658,0.437120944,-0.382536918,0.767537832,0.0152055742,-0.0216303263,0.0321430564,0.9993904,0.7821012,0.0021290458,0.0015641089,0.0048307325,0,0
659,0.436071545,-0.3828834,0.7709827,0.04621857,-0.02139978,0.01000487,0.99934286,0.7992663,0.0021364468,0.0014993822,0.004515375,0,0
660,0.4342569,-0.384463757,0.7739213,0.06684374,-0.024160862,-0.00305039459,0.9992804,0.8138588,0.0021726256,0.0014909506,0.004471941,0,0
661,0.4308851,-0.382386357,0.7714829,0.07159034,-0.0247264821,-0.00598318269,0.9992195,0.82586306,0.0022090361,0.0015016177,0.0045779995,0,0
662,0.4250411,-0.379578,0.7744136,0.0678514242,-0.02243183,-0.000930169132,0.9991776,0.8366214,0.0022140902,0.0014861772,0.004618082,0,0
663,0.420000672,-0.382385373,0.777180851,0.07334521,-0.014572111,0.00359210256,0.99915785,0.8465706,0.0021973827,0.0014305748,0.0044778334,0,0
664,0.421412975,-0.384297729,0.7751736,0.0883019045,-0.007449576,0.000133142341,0.99914646,0.8542463,0.0022151626,0.001360825,0.004258423,0,0
665,0.425952762,-0.381354451,0.768970668,0.100027569,-0.00573032,-0.0113073541,0.9991276,0.8586524,0.0023137443,0.001300563,0.004088328,0,0
666,0.425187379,-0.38086164,0.7698327,0.109966733,-0.007449576,-0.03108423,0.9990952,0.8616707,0.002480031,0.0012446691,0.0039804527,0,0
667,0.427048117,-0.385417432,0.777606964,0.114344008,-0.0113517353,-0.0508019663,0.99904144,0.8660863,0.0026743854,0.0011924437,0.0039371443,0,0
668,0.4328767,-0.38368082,0.7741763,0.107644044,-0.009814521,-0.06695258,0.99895614,0.8724317,0.0028914325,0.0011612203,0.0040170033,0,0
669,0.433680266,-0.381311566,0.768963754,0.105410725,-0.00539995776,-0.087944746,0.9988441,0.8798084,0.0031415187,0.0011534711,0.004254417,0,0
670,0.4336226,-0.387032241,0.767389,0.09863567,0.00139268965,-0.105939128,0.9987268,0.88771594,0.0034039873,0.0011497029,0.0045671584,0,0
671,0.434579939,-0.390729517,0.7686544,0.08218765,0.0150086405,-0.115129925,0.99862546,0.89572245,0.003641477,0.0011293311,0.0047894907,0,0
672,0.432783157,-0.3924502,0.7653327,0.08734723,0.03338222,-0.12848103,0.9985386,0.90306014,0.0038699515,0.0010915056,0.0048416313,0,0
673,0.425836563,-0.398394853,0.760319233,0.117801167,0.0536964126,-0.144283131,0.99844617,0.909241,0.004158467,0.0010500476,0.004801837,0,0
674,0.4150575,-0.407700628,0.7638564,0.137175784,0.06862687,-0.144584134,0.9983306,0.9144444,0.0045492398,0.0010155699,0.00477607,0,0
675,0.405116826,-0.4143833,0.773010731,0.123768441,0.06508989,-0.117724083,0.99819005,0.9190797,0.00501315,0.0009872749,0.004773491,0,0
676,0.401152223,-0.4184012,0.777689755,0.0845346451,0.04049794,-0.0583974123,0.9980367,0.9231708,0.005479701,0.0009580349,0.004702651,0,0
677,0.4038997,-0.4177874,0.7771335,0.0427226275,0.007113963,0.00820405,0.9978629,0.926041,0.0059969546,0.0009356354,0.0045500016,0,0
678,0.4093728,-0.4118862,0.777761936,0.016369326,-0.02033215,0.04672266,0.9976129,0.9265799,0.0068902643,0.00094543444,0.00450829,0,0
679,0.41298756,-0.40894255,0.7768321,-0.007669002,-0.03480198,0.0577884875,0.9972775,0.92473537,0.008456851,0.0009784437,0.004657804,0,0
680,0.418424249,-0.409426183,0.7809167,-0.0277429968,-0.0392705165,0.0533180349,0.9970253,0.9239233,0.0102211945,0.00096132007,0.004679219,0,0
681,0.425607562,-0.4061694,0.7813017,-0.0362080373,-0.0379220955,0.0433140844,0.996983,0.927788,0.011177926,0.00086729974,0.004316907,0,0
682,0.428653032,-0.39906168,0.774919569,-0.04364136,-0.03321572,0.0360772721,0.99702513,0.9346964,0.011245409,0.00076220854,0.0038200936,0,0
683,0.4275523,-0.396529675,0.7718156,-0.0464738719,-0.0309374426,0.02657017,0.997004,0.94114745,0.011058719,0.00069948315,0.0035212948,0,0
684,0.4289758,-0.395360142,0.769153357,-0.0314546674,-0.02840431,0.00779249845,0.9969009,0.94597274,0.0109267635,0.0006840462,0.003511492,0,0
685,0.428799242,-0.391389579,0.7734743,-0.00445428,-0.0218840633,-0.0158490688,0.9967649,0.94949424,0.010831158,0.00070158014,0.0037546628,0,0
686,0.423043758,-0.392507464,0.774914563,0.0148333581,-0.018291682,-0.03366236,0.9966471,0.9522616,0.010676639,0.00073376513,0.004139767,0,0
687,0.424543232,-0.3993905,0.7773478,0.01274877,-0.0167394783,-0.03108632,0.9965837,0.9547185,0.010359085,0.00075933477,0.004464267,0,0
688,0.425205827,-0.403312445,0.7784844,-0.000362052262,-0.0123199187,-0.0181664247,0.99657446,0.95685756,0.009847205,0.0007645918,0.004524521,0,0
689,0.419892818,-0.403968722,0.7695859,-0.0121819032,-0.007449576,-0.00747444155,0.9965515,0.9581819,0.009365216,0.0007596685,0.004342135,0,0
690,0.413401753,-0.400606751,0.7692239,-0.0317304879,-0.00248319213,0.009214996,0.996404,0.9581526,0.009342658,0.0007711077,0.0041684248,0,0
691,0.41351673,-0.401602,0.7734978,-0.05988593,0.0013186296,0.0410290323,0.9960686,0.9566636,0.010056445,0.0008127383,0.004170401,0,0
692,0.420391,-0.406491041,0.778991461,-0.0870081559,0.004256901,0.07611089,0.99559957,0.9543275,0.011420761,0.0008693674,0.0043083765,0,0
693,0.423496217,-0.409748316,0.7741495,-0.09746787,-0.0173823442,0.091707,0.995136,0.95227057,0.013022849,0.00091075874,0.004428317,0,0
694,0.4277865,-0.4090437,0.7666761,-0.09776177,-0.03417345,0.0926488042,0.99481136,0.9515378,0.014353503,0.0009135955,0.0044023506,0,0
695,0.4290538,-0.402298421,0.7697189,-0.09182912,-0.03799678,0.08480368,0.99466115,0.95250404,0.015112221,0.00087908877,0.0042222706,0,0
696,0.426383823,-0.394027859,0.7715469,-0.07885458,-0.0321763866,0.07225587,0.9946309,0.9548231,0.015304285,0.00082627614,0.0039617335,0,0
697,0.430376649,-0.3888296,0.7736211,-0.0716918,-0.0242056474,0.0623973943,0.994629,0.9576807,0.015147471,0.0007780008,0.0037374615,0,0
698,0.434800029,-0.388724446,0.773661435,-0.0717874,-0.0176465753,0.0527258851,0.99460155,0.96043044,0.014834053,0.0007469929,0.0036186408,0,0
699,0.4287875,-0.390968055,0.775139749,-0.0746572,-0.01155806,0.0427619554,0.9945395,0.9627965,0.01444636,0.0007350007,0.0036096813,0,0
700,0.4236909,-0.396598727,0.776446342,-0.08199915,-0.0006600109,0.0397953875,0.9944501,0.96474165,0.014009836,0.00073833077,0.0036686764,0,0
701,0.425084472,-0.39180243,0.7739522,-0.08622018,0.0125506977,0.0409349836,0.9943369,0.9662984,0.013551284,0.00075083686,0.003727254,0,0
702,0.426200032,-0.3889016,0.7714932,-0.08407977,0.0229848772,0.04734546,0.9941803,0.96746314,0.013169216,0.0007675703,0.003744241,0,0
703,0.426571876,-0.3942823,0.770348,-0.09684648,0.02291552,0.06402669,0.99391663,0.9680851,0.013024247,0.00079206954,0.0037340594,0,0
704,0.421975762,-0.396075875,0.770129,-0.118839145,0.00834799,0.083422035,0.99345,0.9679302,0.013354695,0.0008341709,0.003752566,0,0
705,0.405632526,-0.4033469,0.7749388,-0.137521759,-0.0227587428,0.109752677,0.99268955,0.96680933,0.014464199,0.0009009196,0.0038678106,0,0
706,0.406695217,-0.4077237,0.7806111,-0.156520009,-0.0732134655,0.171031341,0.9915514,0.9644671,0.01674921,0.000995887,0.0041462556,0,0
707,0.4303242,-0.398765951,0.7849433,-0.180944577,-0.121603727,0.23828347,0.9899967,0.9604637,0.020820763,0.0011126705,0.0046405555,0,0
708,0.428597659,-0.379504,0.7650657,-0.210716575,-0.117513515,0.191880956,0.9886209,0.95591104,0.026163574,0.0011698335,0.0050156,0,0
709,0.416466147,-0.376501322,0.7354906,-0.122536168,-0.0590367131,0.08347111,0.98872536,0.95539504,0.029736014,0.0010435635,0.0046822494,0,0
710,0.4267452,-0.375500441,0.7502091,0.0500185862,-0.020388389,0.050527174,0.9900508,0.9602396,0.02954506,0.0008138745,0.0038617456,0,0
711,0.438797861,-0.363448054,0.7723679,-0.0113517344,-0.005731905,0.0508976,0.9911127,0.96524316,0.027927585,0.0006535533,0.0033062305,0,0
712,0.444280267,-0.359430581,0.7817073,-0.0438697226,0.00305574946,0.0375408866,0.99172026,0.9685592,0.026781501,0.0005753159,0.003217203,0,0
713,0.450502276,-0.357114881,0.7844949,-0.06322286,-4.56420639e-05,0.0203179475,0.99208695,0.9706506,0.025997467,0.0005490959,0.0034357535,0,0
714,0.445252061,-0.362690657,0.78021574,-0.0558389835,0.009208071,-0.008126503,0.99238664,0.97222996,0.025101693,0.0005448389,0.0037120092,0,0
715,0.434712917,-0.3754542,0.777975559,-0.009389707,0.0161948,-0.0484705158,0.99266046,0.9734991,0.023982983,0.0005440359,0.0038877437,0,0
716,0.431199878,-0.3813363,0.779507458,0.04405075,0.005398266,-0.08001035,0.99286234,0.97431934,0.022870498,0.00054186233,0.0039601726,0,0
717,0.4336096,-0.3816694,0.7829478,0.0583168156,-0.008488088,-0.0848477557,0.99293894,0.9745961,0.02204127,0.00054148905,0.0039999187,0,0
718,0.437342525,-0.378850728,0.7808394,0.0584605336,-0.0159548055,-0.08716971,0.99287844,0.97443974,0.0216766,0.0005455472,0.00405678,0,0
719,0.441191,-0.3707497,0.778508961,0.07447182,-0.00602775253,-0.107454486,0.9927081,0.9741225,0.021891518,0.00055320933,0.004163636,0,0
720,0.448333174,-0.362515539,0.77236104,0.0783899352,0.0263700876,-0.133372128,0.99247915,0.9739085,0.02258805,0.0005622277,0.0043434068,0,0
721,0.4503884,-0.363677055,0.762987554,0.0608946644,0.07583622,-0.160103172,0.99223053,0.9738929,0.023553642,0.000572504,0.004627436,0,0
722,0.447167248,-0.367319435,0.763606548,0.0160413217,0.118575811,-0.175044134,0.9919624,0.97397333,0.024637844,0.00058618357,0.0050380495,0,0
723,0.445768,-0.3713005,0.773741245,-0.022322746,0.1349508,-0.186409816,0.9916769,0.97407514,0.025714498,0.00060205685,0.0054959506,0,0
724,0.432280749,-0.3788124,0.7725622,-0.00460298127,0.138280675,-0.208644941,0.991393,0.97420985,0.026707618,0.0006156972,0.0058498466,0,0
725,0.411508948,-0.384571582,0.777052,0.03855149,0.131586313,-0.210026026,0.9910916,0.97435033,0.02776923,0.00062478165,0.0060583344,0,0
726,0.3997022,-0.3983728,0.7899418,0.06606176,0.106651388,-0.159403577,0.9907381,0.9744244,0.028982515,0.0006282766,0.006135629,0,0
727,0.398533553,-0.40492633,0.790006638,0.07132968,0.07492679,-0.0798168853,0.99032557,0.97431564,0.030202119,0.00062544923,0.00603277,0,0
728,0.411815882,-0.3949038,0.780913651,0.0564128,0.04980752,-0.0220656656,0.98978066,0.9738462,0.03183831,0.00062225485,0.0058090743,0,0
729,0.4216144,-0.388633281,0.7751157,0.04079825,0.03788701,0.0170276035,0.9889329,0.9729133,0.035242327,0.00062842516,0.0056712064,0,0
730,0.420811564,-0.38833347,0.777414858,0.0263701174,0.0420725644,0.00425690133,0.9879399,0.9720547,0.040727478,0.000632689,0.0055976165,0,0
731,0.4236364,-0.390186667,0.774926,-0.0100112716,0.0580121577,-0.0088685425,0.9872776,0.9722857,0.046167526,0.00061275286,0.005351639,0,0
732,0.4263684,-0.387386441,0.7799558,-0.06009577,0.07503184,-0.020338526,0.9871128,0.97370887,0.049394976,0.0005706083,0.0049305987,0,0
733,0.424023837,-0.3812447,0.7842366,-0.09772036,0.08602619,-0.0390610062,0.98721963,0.9754548,0.050274745,0.00052744173,0.0045500146,0,0
734,0.411523581,-0.384568542,0.7848497,-0.07904462,0.08614355,-0.06871479,0.98741555,0.97693396,0.049663685,0.00049716583,0.0043376037,0,0
735,0.40019536,-0.394140035,0.789936841,-0.008256379,0.07128353,-0.08072783,0.9876574,0.9780534,0.04830078,0.00048115323,0.004307119,0,0
736,0.400325537,-0.398144335,0.789679468,0.0391073972,0.0507215448,-0.06060974,0.9879203,0.9788692,0.04660939,0.00047599652,0.0044078277,0,0
737,0.407204866,-0.393131465,0.790733039,0.0428341031,0.0282589179,-0.0315549821,0.98817384,0.97944015,0.044575486,0.00047581876,0.0045063905,0,0
738,0.415682882,-0.3890191,0.785224855,0.0373362452,0.0140312826,-0.0176131632,0.988391,0.9797308,0.04198035,0.00047490495,0.0044457344,0,0
739,0.4167185,-0.3868345,0.775088,0.04011527,0.0163835716,-0.0246723667,0.9884826,0.97966975,0.03950127,0.00047358742,0.0042428984,0,0
740,0.4146223,-0.385780782,0.775778055,0.0353657454,0.0267456919,-0.03518449,0.9882646,0.9792724,0.03875433,0.0004787331,0.00409177,0,0
741,0.417829841,-0.385429531,0.774217665,0.0142717734,0.03942302,-0.0397527628,0.9877366,0.9788045,0.040179905,0.0004907115,0.004058048,0,0
742,0.421665937,-0.383033782,0.7758134,-0.0186556969,0.0539363027,-0.0444681942,0.98713535,0.9786547,0.042550195,0.0005016563,0.0040716575,0,0
743,0.42082873,-0.386141449,0.777810156,-0.04807809,0.06906158,-0.05774648,0.9866447,0.97889477,0.044438746,0.0005082212,0.0041054585,0,0
744,0.406226754,-0.398407817,0.7779875,-0.0369557925,0.07232963,-0.07458854,0.9863229,0.97934383,0.045251824,0.0005131082,0.0041846237,0,0
745,0.388989657,-0.411122918,0.7834177,0.005063746,0.0542629249,-0.06246547,0.98616225,0.9798442,0.045099292,0.00051886844,0.0043178992,0,0
746,0.3895916,-0.406734973,0.781647,0.0190702584,0.02766567,-0.0225955322,0.98613375,0.9803018,0.044045527,0.00052525406,0.0044234386,0,0
747,0.400859952,-0.3909494,0.7823589,0.00422830228,0.00602921471,0.009495759,0.986168,0.9805937,0.042123474,0.00053014525,0.0043772715,0,0
748,0.410312682,-0.383083373,0.785688639,-0.000719016243,-0.004020871,0.0170001816,0.986104,0.98058677,0.040168785,0.00053436327,0.0041884845,0,0
749,0.411184937,-0.383553833,0.785822,0.003307745,-0.00240451563,0.003538277,0.9857139,0.98025006,0.039811727,0.0005433112,0.004024347,0,0
750,0.412452251,-0.3824086,0.78619194,0.00358577375,0.00345539558,-0.008398601,0.9849927,0.979837,0.04166474,0.0005561339,0.003964055,0,0
751,0.4158044,-0.378771633,0.7841994,-0.00128793425,0.01179405,-0.01627972,0.98427254,0.97981495,0.044350352,0.00056262576,0.0039391024,0,0
752,0.417410046,-0.37576893,0.7828842,-0.009297854,0.02273266,-0.0284847841,0.9837895,0.9802737,0.046172474,0.00056037557,0.0039288206,0,0
753,0.414690048,-0.379650831,0.781957448,-0.0119678276,0.0377306,-0.0467428081,0.9835537,0.980926,0.046560638,0.0005576504,0.00398806,0,0
754,0.4062964,-0.3946167,0.7834389,0.008781427,0.0445036255,-0.06276158,0.9835118,0.9815696,0.045857146,0.00056116283,0.004146693,0,0
755,0.397639155,-0.403837085,0.788978338,0.03982028,0.0361190438,-0.06278005,0.9835803,0.9821305,0.04457728,0.0005708734,0.0043640477,0,0
756,0.395078927,-0.4000746,0.7953821,0.0522950143,0.0255198684,-0.04930602,0.9836607,0.98254,0.042968266,0.00058231194,0.0045341724,0,0
757,0.3930862,-0.4006108,0.8006091,0.04793946,0.0134730069,-0.0277870744,0.98366266,0.98270714,0.04113484,0.00059018476,0.004541449,0,0
758,0.388841242,-0.408602029,0.80056113,0.0461328663,-0.006151249,0.008119985,0.9834379,0.9825478,0.03972739,0.0005939861,0.0043800008,0,0
759,0.3901932,-0.411916822,0.7964761,0.04517593,-0.023689663,0.0495325662,0.98267764,0.98194844,0.040402118,0.0006023271,0.004227376,0,0
760,0.396177679,-0.40406993,0.7895806,0.03102202,-0.0359211527,0.08355704,0.98113906,0.98086107,0.04487229,0.00062170177,0.0042445445,0,0
761,0.406310529,-0.3936418,0.782399237,0.007857482,-0.0385793447,0.10341233,0.9792257,0.97973794,0.052887026,0.0006374941,0.0043563307,0,1
762,0.415222019,-0.386422276,0.7819586,-0.009442057,-0.0245662574,0.0933579,0.977842,0.9794057,0.061502017,0.00062694517,0.004358016,0,1
763,0.4194946,-0.38076055,0.786369,-0.0116611533,-0.00215814332,0.05595122,0.9774826,0.9801771,0.067260906,0.0005876449,0.0041653877,0,1
764,0.422220856,-0.3785478,0.7873509,0.0003698493,0.0177271888,0.0143935047,0.9779261,0.98155737,0.06892947,0.0005376841,0.0038925703,0,1
765,0.4223158,-0.383669585,0.7878409,0.023536237,0.0335789174,-0.0179056358,0.9786952,0.9828799,0.06769158,0.00049731135,0.003718496,0,1
766,0.4159998,-0.392375559,0.7904456,0.04651226,0.0470218845,-0.03966901,0.97947824,0.9838564,0.065273404,0.0004760891,0.003737623,0,1
767,0.407872319,-0.3975562,0.7900118,0.0555899031,0.0522123575,-0.04514976,0.98010755,0.98450804,0.0627932,0.0004729013,0.0039229,0,1
768,0.4001176,-0.400096864,0.7856355,0.0540041439,0.0518140644,-0.0391723551,0.98050064,0.9849058,0.060437065,0.00048008555,0.004140219,0,1
769,0.395742327,-0.3999672,0.783037364,0.05241133,0.04529595,-0.0261828955,0.980661,0.9850275,0.057747632,0.00048869447,0.0042239972,0,1
770,0.397050828,-0.40366745,0.783310652,0.0359170139,0.0324809961,-0.0023422807,0.9805372,0.98480976,0.055088516,0.00049530645,0.004133258,0,1
771,0.396347672,-0.402622223,0.7866569,0.00842492,0.0175670926,0.0229869355,0.97977346,0.9841788,0.054909028,0.00050737464,0.0040523647,0,1
772,0.4034375,-0.397553772,0.785981953,-0.008543429,0.006919923,0.0395890661,0.9780249,0.9831586,0.059848934,0.00053151016,0.0041601392,0,1
773,0.410195321,-0.3926091,0.784292161,-0.0220038649,0.006563542,0.0380282775,0.97589713,0.9822678,0.06889707,0.0005539385,0.004351322,0,1
774,0.411959648,-0.3870546,0.782752335,-0.0339402519,0.0110563906,0.02260886,0.9744392,0.98216385,0.0775991,0.00055559515,0.004408962,0,1
775,0.4102691,-0.384552032,0.778170049,-0.0375643037,0.01964884,0.00292464416,0.97400856,0.98280555,0.08233153,0.00053602573,0.00429616,0,1
776,0.4018931,-0.3843689,0.778270245,-0.029549038,0.0299625676,-0.01569798,0.9743056,0.983683,0.082797915,0.000510146,0.004148014,0,1
777,0.400077671,-0.394399017,0.7758622,-0.006657003,0.0376573764,-0.0187128466,0.9749752,0.9844802,0.08055274,0.00049080735,0.0040686377,0,1
778,0.4045181,-0.399369985,0.7784775,0.0133896349,0.0430602431,-0.0143966749,0.97575927,0.98511815,0.07705086,0.0004818288,0.0040639183,0,1
779,0.4107183,-0.394516557,0.782767236,0.01829814,0.03954008,-0.0122484677,0.9764232,0.98556066,0.07317188,0.0004815405,0.0040812963,0,1
780,0.410343617,-0.3951774,0.7796399,0.017451115,0.03304556,-0.0136608491,0.9768456,0.985782,0.06926035,0.00048594174,0.0040540104,0,1
781,0.405498654,-0.396536976,0.7785974,0.018233,0.0319449455,-0.0251286384,0.97693676,0.98577785,0.06602169,0.0004929082,0.003985337,0,1
782,0.403558135,-0.3965019,0.7782499,0.0213315617,0.0337065272,-0.04101245,0.9765782,0.9856072,0.06465402,0.000503327,0.003951329,0,1
783,0.403074056,-0.3969785,0.780412734,0.0244771782,0.0396148451,-0.0583682768,0.975798,0.9854061,0.06553187,0.00051709794,0.0040055593,0,1
784,0.4037265,-0.39550975,0.783900559,0.008159059,0.0415842868,-0.0733768344,0.9747974,0.9852809,0.06758709,0.00053301465,0.0041517504,0,1
785,0.399874955,-0.396485,0.7834356,-0.00558736455,0.03904809,-0.0851197839,0.9738531,0.9852683,0.06932838,0.00054990314,0.0043646237,0,1
786,0.392731756,-0.403320521,0.7862103,-0.0138349272,0.0371384658,-0.09009832,0.97312784,0.98533434,0.06996708,0.0005686025,0.004620163,0,1
787,0.386118919,-0.4082032,0.787297964,-0.0102875093,0.0283428673,-0.07721342,0.9726522,0.9854486,0.06940905,0.00058897154,0.004853528,0,1
788,0.380659431,-0.4104818,0.785056353,0.007922566,0.009802365,-0.0512792133,0.9723671,0.985574,0.06783556,0.00060755253,0.004961582,0,1
789,0.3855128,-0.4065213,0.78886646,0.0242801011,-0.0123411817,-0.0124814287,0.9721043,0.9856216,0.06572508,0.0006208509,0.0048923884,0,1
790,0.3960824,-0.3920175,0.7929034,0.02086407,-0.0225602984,0.0210261866,0.9716132,0.9854837,0.0641622,0.0006290556,0.0047048237,0,1
791,0.4028608,-0.384578735,0.790993869,0.0183064248,-0.0167433862,0.024036333,0.97059244,0.98516136,0.065149195,0.0006358609,0.0045405175,0,1
792,0.404306442,-0.387470245,0.7888925,0.0238392279,-0.00380742,0.00623840233,0.96908,0.98486656,0.06958318,0.000640835,0.004471563,0,1
793,0.4020214,-0.3928286,0.788192034,0.0256834943,0.00759940362,-0.0145933926,0.96768165,0.9849328,0.07522613,0.0006370012,0.0044405037,0,1
794,0.401748031,-0.399172038,0.785517156,0.0227508321,0.0128206434,-0.0236657765,0.9668618,0.98538804,0.0789049,0.00062460866,0.0044115186,0,1
795,0.402959,-0.401123762,0.783323467,0.0121952528,0.01668951,-0.02633516,0.9666645,0.9859795,0.07942303,0.0006134529,0.0044182837,0,1
796,0.4043392,-0.3994957,0.7768956,-0.00106422522,0.0208170637,-0.03006289,0.9669358,0.9865399,0.07738741,0.0006112319,0.004460744,0,1
797,0.402357846,-0.400906116,0.775566757,-0.00223993766,0.025740331,-0.0394645259,0.9673853,0.9869981,0.073975444,0.00061769265,0.004493296,0,1
798,0.400720835,-0.402190059,0.7816343,0.005321126,0.0288003888,-0.0511122048,0.967676,0.98729587,0.07035924,0.00062920904,0.0044909655,0,1
799,0.399361372,-0.4027808,0.7830057,0.00496638427,0.0248540249,-0.05854218,0.9675655,0.98741156,0.067445636,0.00064360595,0.004468034,1,1
800,0.39597854,-0.402814955,0.784276664,0.0215209965,0.017507961,-0.0610188432,0.9669593,0.98740435,0.06598254,0.0006595458,0.00446193,1,1
801,0.395339221,-0.398269057,0.785351336,0.0376814567,0.0104476288,-0.0543948226,0.9658777,0.9873456,0.06613503,0.00067698385,0.004511848,1,1
802,0.392359167,-0.399683446,0.7878254,0.0430682749,0.00632047653,-0.0475751646,0.9645049,0.98730457,0.06732792,0.0006955565,0.0046187327,1,1
803,0.3889244,-0.4063398,0.7902777,0.0352858566,0.00636372669,-0.0392713435,0.9630537,0.9873205,0.06873853,0.0007150137,0.00474811,1,1
804,0.38989535,-0.410023421,0.7876772,0.0291442964,0.00637814263,-0.0233779568,0.96169174,0.9874048,0.06978761,0.00073400186,0.004837631,1,1
805,0.3915211,-0.4104375,0.7869732,0.0203570183,0.008156657,-0.004245235,0.96046144,0.98752093,0.07032369,0.0007504416,0.004838549,1,1
806,0.3941789,-0.406018227,0.783483267,4.55801674e-05,0.0101684621,0.0106461393,0.95925474,0.9876109,0.070654236,0.0007634218,0.004739279,1,1
807,0.396529675,-0.402103752,0.7784137,-0.0148839578,0.0129675148,0.0131267393,0.9578765,0.98765355,0.07161775,0.0007731369,0.0045845625,1,1
808,0.396987766,-0.403403074,0.776723862,-0.01737728,0.0178026911,0.00331135467,0.95620203,0.9876852,0.073900685,0.00078075315,0.004454102,1,1
809,0.3977915,-0.406277567,0.773719132,-0.0171441622,0.017640708,-0.008474242,0.9543891,0.9877862,0.07691291,0.0007875327,0.0043899287,1,1
810,0.394153148,-0.4057709,0.7753217,-0.016356973,0.0108466195,-0.0141764833,0.9527959,0.98800105,0.07905627,0.0007944832,0.004390625,1,1
811,0.3898479,-0.40625307,0.7833429,-0.0118376762,0.00113234762,-0.01004662,0.9517182,0.988307,0.07916696,0.0008036325,0.004438693,1,1
812,0.392481834,-0.4064138,0.7930153,-0.01813556,-0.000686776068,-0.00122042291,0.9511779,0.98864335,0.07724523,0.0008179165,0.004503153,1,1
813,0.3975916,-0.404025942,0.7910311,-0.0241370145,0.00296375039,0.00314060971,0.9509629,0.98895836,0.07409949,0.00083631667,0.0045242873,1,1
814,0.3945748,-0.400137544,0.7859752,-0.01833318,0.005954301,0.005321126,0.95069253,0.9891963,0.07086782,0.0008538381,0.0044684266,1,1
815,0.394382983,-0.397213817,0.785429239,-0.0192365032,0.008370117,0.007799593,0.9498901,0.9893055,0.06870214,0.0008694631,0.004373267,1,1
816,0.3995274,-0.399494439,0.785898268,-0.0220208038,0.007401682,0.0106422519,0.94821423,0.98929507,0.06850775,0.0008861468,0.004302876,1,1
817,0.397498727,-0.4025333,0.787193954,-0.0215299372,0.006724128,0.00744957663,0.9456897,0.98922956,0.07040866,0.0009058508,0.0042977068,1,1
818,0.396496981,-0.4033835,0.7915321,-0.02597796,0.00720776,0.00603060937,0.9426444,0.9891897,0.07354835,0.0009294745,0.0043653143,1,1
819,0.397953421,-0.4020393,0.7902112,-0.0327817574,0.00736897066,0.00662184553,0.9396378,0.989239,0.07645856,0.0009556605,0.004467319,1,1
820,0.396160245,-0.399963617,0.7861902,-0.0272453725,0.00387529074,0.006818924,0.93719256,0.98939973,0.07803111,0.0009805785,0.004552657,1,1
821,0.393772155,-0.3986207,0.790221,-0.0133386925,-0.00261039543,0.010077293,0.93543565,0.9896395,0.07808924,0.0010017295,0.004603979,1,1
822,0.393301636,-0.39654544,0.78717,-0.0108315824,-0.00725548342,0.0154203149,0.9341405,0.9898993,0.077037714,0.0010202816,0.0046106796,1,1
823,0.3960745,-0.3924357,0.791198552,-0.01035062,-0.0109322965,0.01862029,0.9328739,0.990127,0.075707376,0.0010370644,0.004581534,1,1
824,0.3969988,-0.392856151,0.7962849,-0.00522391545,-0.0114484169,0.0161395315,0.9312784,0.99030054,0.07489528,0.0010521004,0.004538389,1,1
825,0.392098546,-0.393321842,0.7885403,-0.00528872246,-0.009492006,0.009991487,0.92918426,0.9904242,0.07495579,0.0010675743,0.0045012934,1,1
826,0.392418265,-0.3918495,0.7884002,-0.005310325,-0.00564719364,0.003330496,0.9265523,0.9905249,0.07591926,0.0010860158,0.0045055137,1,1
827,0.3959428,-0.397543579,0.790306568,0.0003583422,-0.0008181727,0.0007554235,0.9236484,0.9906484,0.077288404,0.0011078422,0.0045617814,1,1
828,0.393862456,-0.402859569,0.7854082,0.00473109027,0.00221046782,0.004153967,0.9208871,0.9908178,0.0782536,0.0011325534,0.0046418924,1,1
829,0.389588267,-0.405933648,0.784426451,0.0104455734,0.000736822549,0.0116721652,0.91847247,0.991027,0.078463204,0.0011582077,0.004710342,1,1
830,0.3894656,-0.408585936,0.786215067,0.01412411,-0.00365655147,0.0237562582,0.9162594,0.9912479,0.07816353,0.0011827765,0.004734996,1,1
831,0.38893643,-0.406377584,0.7838816,0.0106422519,-0.008313685,0.0327506736,0.91392565,0.9914397,0.07787422,0.001204119,0.0046903114,1,1
832,0.3931546,-0.404176623,0.785870731,-0.000543986447,-0.0109302877,0.03752252,0.91097915,0.9915679,0.07839096,0.0012220042,0.004595281,1,1
