frame,accel_x,accel_y,accel_z,gyro_x,gyro_y,gyro_z,prob_0,prob_1,prob_2,prob_3,prob_4,correct_answer,model_prediction
0,-0.0140695395,0.02079201,-1.0331682,0.00106422522,-0.00260143937,0.00134777848,0.5576937,0.3966731,0.29789022,0.25793627,0.29082534,0,0
1,-0.0138044292,0.02255567,-1.03416812,0.00106422522,-0.00228611333,0.00106422522,0.68540704,0.26910362,0.13515835,0.06632127,0.10586473,0,0
2,-0.0120884553,0.02444564,-1.032711,0.00110514031,-0.001826263,0.00212845043,0.8461213,0.1179259,0.030218791,0.005271454,0.016235383,0,0
3,-0.0105399014,0.0260521919,-1.0348295,0.00106422522,-0.00202772114,0.000709483458,0.95465904,0.035069495,0.004425741,0.00025166982,0.001676987,0,0
4,-0.009860956,0.0291918758,-1.03244317,0.000354741729,-0.00244961563,0.0006607639,0.98732424,0.011064586,0.00088577915,2.3830722e-05,0.00029728538,0,0
5,-0.0101229222,0.0268204678,-1.02660215,0.00106422522,-0.0022355055,0.00212845043,0.99451464,0.0049930727,0.000351348,6.614026e-06,0.00012136239,0,0
6,-0.0136282137,0.0252161976,-1.029538,0.000354741729,-0.00216413545,0.00141896692,0.99657464,0.0031719727,0.0002284496,3.689716e-06,8.333791e-05,0,0
7,-0.0141456025,0.025658004,-1.03491116,0.000118247241,-0.00284982868,0.00106422522,0.99741507,0.0024969783,0.00018970204,2.878318e-06,7.255683e-05,0,0
8,-0.0143180648,0.0238521472,-1.02758753,-0.0003123057,-0.00236890977,0.00104192179,0.9978515,0.0021990435,0.0001776174,2.638479e-06,7.054375e-05,0,0
9,-0.018607324,0.02097155,-1.02758777,-0.00106422522,-0.00185386185,0.00106422522,0.9981189,0.0020366586,0.00017793251,2.632964e-06,7.2936644e-05,0,0
10,-0.0190605149,0.01952307,-1.03377283,-0.000489276659,-0.00203692075,-0.00106422522,0.9983068,0.0019170447,0.00018619682,2.7613387e-06,7.876867e-05,0,0
11,-0.0185605362,0.020830607,-1.03306758,0.00106422522,-0.00209794031,-0.0009868093,0.9984529,0.0018058083,0.00020073778,2.9884302e-06,8.7911394e-05,0,0
12,-0.0192076787,0.0243589,-1.03397179,-0.00106422522,-0.00176353857,0.00106422522,0.99857104,0.0016991242,0.00021976973,3.2836626e-06,9.958141e-05,0,0
13,-0.0153543828,0.0245584343,-1.02906477,-0.00189082127,-0.00129732967,0.00106422522,0.99866325,0.001608076,0.00024020598,3.600218e-06,0.00011167907,0,0
14,-0.01390719,0.022346301,-1.02775466,-0.00106422522,-0.00185141014,0.000111612921,0.9987319,0.0015392959,0.0002591639,3.893446e-06,0.00012201008,0,0
15,-0.0178193245,0.0222599655,-1.03106153,9.918662e-06,-0.00203610375,-0.00106422522,0.9987826,0.0014896415,0.0002756447,4.1456574e-06,0.0001297748,0,0
16,-0.019774409,0.021417385,-1.03004789,0.00106422522,-0.00138818473,0.00106422522,0.9988208,0.0014525793,0.00029025797,4.3649857e-06,0.00013539653,0,0
17,-0.021565428,0.0222758483,-1.02417612,0.000354741729,-0.0011722116,0.002248379,0.99885106,0.0014224234,0.00030391393,4.564969e-06,0.00013959294,0,0
18,-0.0226507168,0.021097159,-1.0227071,0.00106422522,-0.00110022072,0.00212845043,0.9988763,0.0013957309,0.00031715663,4.7538783e-06,0.00014289068,0,0
19,-0.0210593548,0.02037874,-1.0264492,0.000354741729,-0.00107622368,0.00141896692,0.99889827,0.0013706282,0.0003302884,4.936712e-06,0.0001456227,0,0
20,-0.0184130147,0.0230689552,-1.02932417,0.000295971346,-0.00142296648,0.00106422522,0.99891794,0.0013464778,0.0003433995,5.116173e-06,0.00014798655,0,0
21,-0.0155777754,0.0221753288,-1.03256118,0.00106422522,-0.00153854734,-0.00017533655,0.9989357,0.0013231806,0.00035639104,5.291712e-06,0.00015008565,0,0
22,-0.0149582168,0.0226912554,-1.03071058,0.000354741729,-0.00106422522,-0.00212845043,0.99895185,0.0013008725,0.00036913803,5.462677e-06,0.00015198057,0,0
23,-0.0144261764,0.02563016,-1.02862883,0.000118247241,-0.0009048762,-0.000709483458,0.9989665,0.001279843,0.000381537,5.628496e-06,0.00015370728,0,0
24,-0.0152253918,0.0246566683,-1.02874863,3.94157469e-05,-0.00106422522,-0.00130071968,0.9989799,0.0012602168,0.00039332017,5.7853667e-06,0.00015527688,0,0
25,-0.0193980467,0.02400665,-1.02878857,0.0003911372,-0.00141896692,-0.00106422522,0.99899215,0.0012421577,0.00040429356,5.93117e-06,0.00015669566,0,0
26,-0.01964961,0.022976175,-1.02831364,0.00106422522,-0.00189195585,-0.000103223625,0.9990032,0.0012257642,0.00041434733,6.0648094e-06,0.00015797929,0,0
27,-0.0146878911,0.0226326827,-1.028318,-0.000354741729,-0.00319267553,0.00106422522,0.99901325,0.0012109304,0.00042346976,6.1863375e-06,0.00015915089,0,0
28,-0.0127084637,0.0230064671,-1.02994716,-0.00106422522,-0.00319672422,0.00106422522,0.9990224,0.0011975208,0.0004315379,6.293677e-06,0.00016019763,0,0
29,-0.0144900605,0.023293823,-1.02707231,-0.00115982711,-0.00212845043,0.0001942207,0.99903077,0.0011855384,0.00043852587,6.386986e-06,0.00016112474,0,0
30,-0.0144328848,0.0194833577,-1.022045,-0.00106422522,-0.00106422522,-0.00106422522,0.9990383,0.0011749621,0.00044449393,6.46744e-06,0.0001619468,0,0
31,-0.0152276279,0.0147952335,-1.01955545,-0.000245136325,-0.000709483458,-0.001410485,0.9990451,0.0011656603,0.00044951277,6.5362287e-06,0.00016267032,0,0
32,-0.0164691042,0.0174642969,-1.02377117,0.00106422522,-0.00130071968,-0.00106422522,0.9990514,0.0011573159,0.00045363046,6.593552e-06,0.00016329007,0,0
33,-0.0172084514,0.0235623177,-1.02794325,0.000354741729,-0.00114305678,0.000354741729,0.99905723,0.0011497637,0.00045704248,6.641957e-06,0.00016383249,0,0
34,-0.01810594,0.02461843,-1.02982223,0.000118247241,-0.00179998577,0.0008277307,0.9990626,0.0011430074,0.0004598084,6.68271e-06,0.00016432266,0,0
35,-0.0156381782,0.0231801029,-1.03272724,0.000478205126,-0.00237370376,0.00106422522,0.99906754,0.0011369621,0.00046198777,6.7164383e-06,0.00016476055,0,0
36,-0.0131879868,0.0236772224,-1.02946377,0.00106422522,-0.00212845043,0.000354741729,0.9990721,0.0011316012,0.0004636627,6.744777e-06,0.00016515976,0,0
37,-0.01416162,0.0233546477,-1.03065455,0.000354741729,-0.00240666419,0.000118247241,0.99907625,0.0011267371,0.00046490942,6.7683086e-06,0.00016551794,0,0
38,-0.014974446,0.0242236853,-1.035446,0.0008277307,-0.00319267553,3.94157469e-05,0.99908024,0.0011223006,0.00046572287,6.7867427e-06,0.0001658301,0,0
39,-0.0163847115,0.0245133638,-1.03411353,0.0009853938,-0.00177370862,-0.000391339359,0.9990839,0.0011183274,0.00046622104,6.8017684e-06,0.0001661102,0,0
40,-0.0168548,0.0265630484,-1.0297631,0.001037948,-0.0020102032,-0.00106422522,0.9990872,0.0011148062,0.00046647398,6.814923e-06,0.00016637477,0,0
41,-0.0144073293,0.0270835161,-1.03010333,0.00105546613,-0.00279851817,-0.000354741729,0.9990903,0.0011116544,0.00046655268,6.8266772e-06,0.0001666261,0,0
42,-0.0150563493,0.021885911,-1.03282082,0.00106422522,-0.00306128967,-0.00106422522,0.9990932,0.0011088077,0.0004664184,6.8359154e-06,0.00016686282,0,0
43,-0.0162492525,0.0188512933,-1.03405225,0.000354741729,-0.00279413839,-0.000354741729,0.9990958,0.0011062557,0.00046616906,6.844174e-06,0.00016708812,0,0
44,-0.0168096479,0.0212577228,-1.032998,-0.0004052371,-0.00270508812,-0.000118247241,0.99909824,0.0011039396,0.00046583233,6.8517497e-06,0.0001673038,0,0
45,-0.01829853,0.0295468438,-1.03476238,-0.00106422522,-0.00267540477,-3.94157469e-05,0.99910057,0.0011017219,0.00046538538,6.857763e-06,0.000167496,0,0
46,-0.0187948216,0.0311705619,-1.03274632,-0.00141896692,-0.00231076847,-1.31385823e-05,0.9991028,0.0010997343,0.00046488835,6.863331e-06,0.00016769014,0,0
47,-0.0197740551,0.0282938331,-1.02605212,-0.00106422522,-0.002189223,0.000385785155,0.9991046,0.0010980922,0.00046440246,6.8698664e-06,0.00016789653,0,0
48,-0.0174963,0.0291252881,-1.02675045,-0.00131991215,-0.00108448276,0.00106422522,0.9991064,0.0010965806,0.00046393034,6.875857e-06,0.00016808588,0,0
49,-0.016411528,0.0263099913,-1.02861083,-0.00212845043,-0.000361494254,0.0004682228,0.9991081,0.0010951661,0.00046342454,6.8807303e-06,0.00016826998,0,0
50,-0.0181658212,0.0239067152,-1.02955639,-0.000709483458,-0.00106422522,-0.00106422522,0.9991096,0.0010938816,0.00046276214,6.8834606e-06,0.00016843966,0,0
51,-0.01679746,0.0209897384,-1.03068542,-0.00106422522,-0.00212125247,-0.00141896692,0.99911106,0.0010926902,0.00046204234,6.8856275e-06,0.00016860645,0,0
52,-0.0145509765,0.015785642,-1.03350317,-0.00132500846,-0.00319267553,-0.000472988962,0.9991124,0.0010916123,0.00046129688,6.8877885e-06,0.00016877743,0,0
53,-0.0168945957,0.0158413071,-1.03655827,-0.00106422522,-0.00268794852,0.0005518205,0.99911374,0.0010905833,0.0004605058,6.8891086e-06,0.00016893265,0,0
54,-0.0194661673,0.0235096011,-1.03790224,-0.0003547418,-0.00106422522,0.0008934236,0.99911505,0.0010895551,0.00045966462,6.889148e-06,0.00016906124,0,0
55,-0.0172309112,0.0255774185,-1.03265369,0.00212845043,-0.00319267553,0.000297807885,0.9991162,0.0010887407,0.00045877142,6.889733e-06,0.00016921299,0,0
56,-0.0155092627,0.0228487235,-1.03204346,0.00250297529,-0.00402583648,0.000454011024,0.9991172,0.0010880133,0.00045788975,6.8906593e-06,0.00016937053,0,0
57,-0.0149353789,0.0227529611,-1.03460693,0.00106422522,-0.00319267553,0.00157030392,0.99911827,0.0010872817,0.00045707208,6.891862e-06,0.00016952242,0,0
58,-0.0163716879,0.019465832,-1.03318274,0.000354741729,-0.00212845043,0.00158765994,0.99911916,0.0010866434,0.00045629463,6.893302e-06,0.0001696783,0,0
59,-0.0163621772,0.0191839244,-1.03466117,0.000118247233,-0.00185322866,0.00106422522,0.99912006,0.0010860121,0.00045550277,6.8938275e-06,0.00016981766,0,0
60,-0.0160334855,0.0220196415,-1.0333637,0.000748899241,-0.00212845043,0.000354741729,0.9991209,0.0010854185,0.00045467747,6.8938143e-06,0.00016994872,0,0
61,-0.0170632452,0.0216627959,-1.03130352,0.00106422522,-0.00177370862,0.000421623641,0.99912167,0.0010848973,0.00045387444,6.894025e-06,0.00017007873,0,0
62,-0.0175692588,0.0217066091,-1.02687323,0.000323597167,-0.0020102032,0.00106422522,0.9991223,0.001084479,0.00045316888,6.895866e-06,0.00017022117,0,0
63,-0.0159475654,0.0220467355,-1.02409446,-0.00106422522,-0.00244377647,-0.000354741729,0.9991229,0.001084073,0.00045250237,6.897813e-06,0.00017036342,0,0
64,-0.0144304382,0.0234621931,-1.02284276,-0.000354741729,-0.00187881722,-0.00106422522,0.9991235,0.0010837105,0.00045182093,6.899076e-06,0.00017049263,0,0
65,-0.0173426978,0.0216553658,-1.02519238,-0.000118247241,-0.00133575592,-0.0003738715,0.9991241,0.0010833585,0.0004511543,6.899958e-06,0.00017061393,0,0
66,-0.0170113686,0.0184489246,-1.03134668,0.000305561232,-0.001509477,0.00106422522,0.99912465,0.0010830129,0.00045050064,6.9002144e-06,0.00017072655,0,0
67,-0.0152733205,0.0191704761,-1.03095675,0.00106422522,-0.00192212593,0.00106422522,0.9991252,0.0010827045,0.00044983765,6.9003067e-06,0.00017084232,0,0
68,-0.0161588155,0.0205503162,-1.03082669,-0.000354741729,-0.00205967552,0.00016891741,0.9991257,0.0010823209,0.0004491767,6.899971e-06,0.00017095266,0,0
69,-0.0172677822,0.02393995,-1.02980673,-0.00106422522,-0.00175078365,-0.00106422522,0.99912626,0.0010818997,0.0004484851,6.8987865e-06,0.00017104672,0,0
70,-0.0181257185,0.0275112335,-1.02914131,-0.000354741729,-0.00164781976,-0.000354741729,0.9991268,0.0010815191,0.0004477999,6.897708e-06,0.00017113236,0,0
71,-0.0169468541,0.02821338,-1.028594,-0.000118247241,-0.00161349855,-0.000118247241,0.99912727,0.001081178,0.00044714936,6.896892e-06,0.00017121917,0,0
72,-0.0163911376,0.0271453466,-1.02629566,-0.000458814728,-0.00106422522,-3.94157469e-05,0.9991277,0.001080901,0.00044655963,6.8967474e-06,0.00017131033,0,0
73,-0.015880378,0.02499897,-1.02797091,-0.00106422522,-0.00167035533,-1.31385823e-05,0.99912804,0.001080626,0.00044599787,6.896609e-06,0.00017140018,0,0
74,-0.0134314792,0.0262366366,-1.03259838,0.000354741729,-0.00319267553,-0.000400078425,0.9991285,0.0010803224,0.00044535592,6.894998e-06,0.00017147652,0,0
75,-0.0129407011,0.02616091,-1.03056014,0.000118247233,-0.00212845043,-0.00106422522,0.9991289,0.0010800322,0.00044472428,6.8934464e-06,0.00017155438,0,0
76,-0.0153812757,0.0206018146,-1.02809036,-0.00102480955,-0.000709483458,-0.00125011359,0.99912924,0.0010798131,0.0004441549,6.8926115e-06,0.0001716347,0,0
77,-0.0148927169,0.0205391478,-1.0284065,-0.000696344941,-0.0008885718,-0.00106422522,0.99912953,0.0010796331,0.00044359968,6.8918557e-06,0.0001717041,0,0
78,-0.01326502,0.0244245082,-1.03192985,0.00106422522,-0.00212845043,0.000354741729,0.99912983,0.0010794506,0.00044303597,6.8909617e-06,0.00017176928,0,0
79,-0.0128852157,0.0257196277,-1.033918,0.000417531643,-0.00212845043,0.000118247233,0.9991302,0.0010792047,0.00044248896,6.8898576e-06,0.00017183792,0,0
80,-0.0129213743,0.0261513349,-1.03295314,-0.00212845043,-0.00248319213,0.000394157483,0.9991305,0.001078938,0.0004420284,6.889989e-06,0.00017192036,0,0
81,-0.0174907185,0.026457997,-1.03067839,-0.00248467,-0.00189195585,0.000486127537,0.9991308,0.0010787129,0.0004415944,6.8902323e-06,0.00017199611,0,0
82,-0.0183627922,0.0250953734,-1.02764142,-0.00106422522,-0.00134013547,0.000516784261,0.999131,0.0010786102,0.0004411816,6.890607e-06,0.0001720673,0,0
83,-0.0189790037,0.02187424,-1.02728021,0.000354741729,-0.00151093712,0.00052700314,0.9991312,0.0010785793,0.0004407764,6.8909158e-06,0.00017213721,0,0
84,-0.01999821,0.02128881,-1.02878749,0.00106422522,-0.000858387444,-0.00106422522,0.99913144,0.001078509,0.00044031572,6.889628e-06,0.00017218711,0,0
85,-0.02245383,0.0217447076,-1.03173125,0.0004199987,0.00106422522,-0.00159222,0.9991317,0.00107836,0.00043984043,6.8872564e-06,0.00017221452,0,0
86,-0.02294685,0.0214083921,-1.02831793,-0.00106422522,-0.000326568843,-0.00106422522,0.99913186,0.0010782784,0.0004394406,6.8868753e-06,0.00017226956,0,0
87,-0.0159497317,0.0216218084,-1.02701747,-0.00106422522,-0.004256901,-0.0012728658,0.9991319,0.0010782444,0.00043904845,6.8875124e-06,0.00017234775,0,0
88,-0.0136173591,0.0236460716,-1.02609575,-0.00016460492,-0.00283793383,-0.00212845043,0.99913204,0.0010781855,0.00043862243,6.8871514e-06,0.00017241003,0,0
89,-0.0130026611,0.0254601482,-1.02090561,0.00106422522,-0.00212845043,0.000354741729,0.9991321,0.0010782722,0.00043831085,6.8893714e-06,0.00017249935,0,0
90,-0.007589428,0.0278552044,-1.01933825,0.000354741729,-0.00210099248,0.00118247245,0.9991321,0.0010783451,0.00043811926,6.8929794e-06,0.00017260383,0,0
91,-0.007575382,0.0312577225,-1.02500069,0.0008277307,-0.00212845043,0.0014583827,0.9991322,0.001078285,0.00043790133,6.895011e-06,0.00017269255,0,0
92,-0.0121279918,0.02636976,-1.02932966,0.00027591025,-0.00106422522,0.00106422522,0.9991324,0.001078153,0.0004376539,6.8954714e-06,0.00017277061,0,0
93,-0.0160869341,0.0214852318,-1.03093541,9.197008e-05,-0.00149427471,0.000354741729,0.9991326,0.0010780189,0.00043735572,6.8948334e-06,0.00017283719,0,0
94,-0.0193597078,0.0208336189,-1.03244722,0.00106422522,-0.00319267553,-0.0003635618,0.9991328,0.001077867,0.00043696063,6.8929007e-06,0.00017288547,0,0
95,-0.0186602678,0.0201281328,-1.03490436,0.000354741729,-0.00177370862,-0.00106422522,0.99913305,0.0010776416,0.0004365397,6.889792e-06,0.00017290823,0,0
96,-0.0195664447,0.022497138,-1.0337702,0.000295200822,-0.00165546138,-0.00106422522,0.9991333,0.0010774332,0.00043610713,6.886954e-06,0.00017292915,0,0
97,-0.0190547016,0.0216592029,-1.03160179,0.00106422522,-0.00197078753,-0.00106422522,0.99913347,0.001077307,0.00043567584,6.8846293e-06,0.0001729549,0,0
98,-0.0167682339,0.0186129641,-1.03348315,0.00130160584,-0.002075896,-0.00106422522,0.9991336,0.0010772045,0.0004352491,6.8823188e-06,0.00017297766,0,0
99,-0.0140529526,0.020527238,-1.03280818,0.00106422522,-0.00175619044,-0.00106422522,0.9991337,0.0010771122,0.00043485287,6.8805793e-06,0.00017300321,0,0
100,-0.01314786,0.0253971,-1.02900255,0.0009813996,-0.001649622,-0.000354741729,0.9991338,0.0010770607,0.0004345269,6.8804156e-06,0.00017304266,0,0
101,-0.01577585,0.0262065846,-1.03343058,0.00106422522,-0.001968841,0.00106422522,0.99913394,0.0010769675,0.0004342367,6.880258e-06,0.00017307863,0,0
102,-0.0190932527,0.0243605282,-1.0336045,-0.00106422522,-0.00207524723,0.000354741729,0.99913406,0.0010768453,0.00043399254,6.8803038e-06,0.00017312169,0,0
103,-0.0197107717,0.0219548121,-1.03073275,-0.0009924675,-0.002110716,-0.000906591944,0.9991341,0.0010768023,0.00043374064,6.880173e-06,0.00017316215,0,0
104,-0.015196559,0.02261775,-1.03205407,0.00106422522,-0.001767797,-0.00212845043,0.99913424,0.0010767684,0.0004334133,6.8784866e-06,0.00017318115,0,0
105,-0.0109248944,0.0243035723,-1.03005314,0.00106422522,-0.00165349094,-0.000709483458,0.99913424,0.0010767736,0.0004331688,6.878657e-06,0.00017322127,0,0
106,-0.0132444957,0.0209592637,-1.0302,0.000354741729,-0.00197013072,-0.000945978041,0.9991343,0.0010767694,0.00043294256,6.8790378e-06,0.0001732705,0,0
107,-0.0146687375,0.018379651,-1.03382969,0.000118247233,-0.00172093546,-0.000315326,0.99913436,0.0010767458,0.00043272428,6.8789723e-06,0.00017330718,0,0
108,-0.01709661,0.0209377483,-1.03829479,0.00106422522,-0.00128312863,0.0009591165,0.9991345,0.0010766791,0.0004324927,6.878185e-06,0.00017332783,0,0
109,-0.0192079842,0.0213021655,-1.034412,0.000206852565,-0.00106422522,0.0006744472,0.99913454,0.0010766473,0.0004323126,6.8783556e-06,0.00017336519,0,0
110,-0.0168193281,0.01784291,-1.03067636,-0.00212845043,-0.000354741729,0.00022481574,0.99913454,0.0010766473,0.00043223248,6.8797135e-06,0.00017341165,0,0
111,-0.0148837864,0.0179919079,-1.03236091,-0.000709483458,-0.000392415968,0.00106422522,0.99913454,0.0010766791,0.00043214014,6.8806253e-06,0.00017344688,0,0
112,-0.01586621,0.02032022,-1.03080654,-0.000188598235,-0.00106422522,0.00176206313,0.9991345,0.0010767161,0.00043207075,6.882174e-06,0.00017349319,0,0
113,-0.0161936861,0.0227239281,-1.03484571,-0.00106422522,-0.00212845043,0.00212845043,0.99913454,0.0010766357,0.00043200835,6.883251e-06,0.00017353405,0,0
114,-0.01467524,0.0214092787,-1.03944731,-0.000354741729,-0.00319267553,0.00212845043,0.99913466,0.0010765212,0.00043188446,6.8831064e-06,0.00017357245,0,0
115,-0.0135180494,0.0206455421,-1.03105271,-0.000303524022,-0.00307291583,0.0005351695,0.99913466,0.0010765048,0.00043175602,6.88375e-06,0.00017362955,0,0
116,-0.0131323189,0.0223440882,-1.02711523,-0.00106422522,-0.00212845043,-0.00212845043,0.99913466,0.0010764339,0.000431584,6.8834674e-06,0.00017366548,0,0
117,-0.0151196271,0.0204688627,-1.0285697,-0.00129870174,-0.0014524617,-0.00130070187,0.9991347,0.0010763741,0.00043142642,6.8833297e-06,0.00017369166,0,0
118,-0.0141544593,0.0177279022,-1.02970552,-0.00106422522,-0.00106422522,0.00212845043,0.9991347,0.0010764229,0.00043138783,6.8851677e-06,0.00017373255,0,0
119,-0.0128561743,0.0197439361,-1.03024685,-0.00106422522,-0.00177370885,0.00106422522,0.9991347,0.0010764177,0.0004313302,6.8862973e-06,0.00017377132,0,0
120,-0.0119351307,0.0210669879,-1.03059,-0.000354741729,-0.0020102032,-0.00034547082,0.9991347,0.0010763771,0.000431204,6.886179e-06,0.00017380065,0,0
121,-0.0108143138,0.0223218072,-1.03477347,-0.0003753682,-0.00102480955,-0.00106422522,0.99913484,0.0010762326,0.00043102112,6.884452e-06,0.00017380796,0,0
122,-0.0114172706,0.0243676845,-1.03649342,-0.00106422522,0.00106422522,-0.000354741729,0.99913496,0.0010760445,0.00043085683,6.882568e-06,0.00017380364,0,0
123,-0.0135713816,0.0213061552,-1.03137016,-0.00106422522,9.765953e-05,0.00106422522,0.9991349,0.0010760189,0.00043076935,6.8830077e-06,0.0001738325,0,0
124,-0.0165680647,0.0210994482,-1.02657,-0.000354741729,-0.00319267553,0.000354741729,0.99913484,0.0010760762,0.00043066835,6.884209e-06,0.00017387408,0,0
125,-0.0174041986,0.02298367,-1.02789962,0.0005912362,-0.00212845043,0.000275026483,0.9991349,0.001076107,0.00043055566,6.8843865e-06,0.00017388818,0,0
126,-0.0189849939,0.0205192957,-1.022809,0.00106422522,-0.00212845043,0.00106422522,0.9991348,0.001076286,0.00043051646,6.8864747e-06,0.00017393428,0,0
127,-0.0203257278,0.0175819527,-1.02485561,0.000354741729,-0.00212845043,0.000354741729,0.9991347,0.0010764126,0.00043047784,6.8878276e-06,0.00017397109,0,0
128,-0.0184939932,0.0180676822,-1.03823316,-0.000428245781,-0.00141896692,0.00031575,0.99913484,0.0010763009,0.00043035764,6.8860872e-06,0.00017396595,0,0
129,-0.0188599769,0.0198571961,-1.03894889,-0.00106422522,-0.00118247245,0.00106422522,0.99913496,0.0010761706,0.0004302307,6.8846293e-06,0.00017397458,0,0
130,-0.01833093,0.0225695875,-1.03349078,0.00106422522,-0.001103641,0.00177370885,0.999135,0.0010761602,0.00043009664,6.883907e-06,0.00017399117,0,0
131,-0.0168524981,0.0265661646,-1.03281069,0.00102760014,-0.00106422522,0.00165546138,0.999135,0.0010760885,0.00042997798,6.8831982e-06,0.0001740013,0,0
132,-0.0161969271,0.0265962724,-1.03909445,-0.00106422522,-0.00105682435,0.00106422522,0.9991352,0.0010758537,0.00042984803,6.8813342e-06,0.0001739978,0,0
133,-0.01467632,0.0225372985,-1.04346764,-0.00106422522,-0.00106422522,0.000354741729,0.9991354,0.0010756098,0.00042964707,6.8780996e-06,0.00017398586,0,0
134,-0.0131928883,0.0190684218,-1.0405308,-0.00106422522,-0.00177370885,0.000118247241,0.99913543,0.0010754603,0.00042944093,6.875758e-06,0.00017398769,0,0
135,-0.0135122128,0.0192142129,-1.03971469,-0.00110996258,-0.00212845043,3.94157469e-05,0.99913555,0.001075318,0.00042923138,6.873732e-06,0.00017398321,0,0
136,-0.0154090188,0.0197510924,-1.04123306,-0.00106422522,-0.001790397,-0.000386701373,0.9991357,0.0010751591,0.0004289972,6.8711965e-06,0.00017396528,0,0
137,-0.0150647247,0.0200928133,-1.039786,-0.00106422522,-0.00106422522,-0.00106422522,0.99913573,0.0010750454,0.00042876968,6.868936e-06,0.00017394689,0,0
138,-0.0152754812,0.02476401,-1.03669941,-0.000282769382,-0.00141896692,-0.000354741729,0.99913573,0.001075007,0.00042857925,6.8680124e-06,0.00017393827,0,0
139,-0.01762438,0.0250189919,-1.03436852,0.00106422522,-0.00153721415,-0.000118247241,0.99913573,0.0010750572,0.00042841057,6.8677177e-06,0.00017393893,0,0
140,-0.0184073448,0.0218487773,-1.03473091,-0.000354741729,-0.00122188823,-0.000465586025,0.99913573,0.00107511,0.00042830687,6.868006e-06,0.00017394556,0,0
141,-0.017366251,0.025349332,-1.03599107,-0.00106422522,-0.00218100473,-0.00106422522,0.99913573,0.0010751152,0.00042820023,6.868117e-06,0.00017395004,0,0
142,-0.0183213037,0.0268417057,-1.03283036,-0.0015392669,-0.00179122679,0.00106422522,0.9991357,0.001075196,0.00042820678,6.8703444e-06,0.00017397756,0,0
143,-0.0207555387,0.0270136427,-1.026894,-0.00212845043,-0.0005970756,0.00220823451,0.99913555,0.0010753742,0.00042834276,6.8744207e-06,0.00017402288,0,0
144,-0.0199393462,0.026745433,-1.029147,-0.00106422522,-0.0009085087,0.00212845043,0.99913543,0.0010755361,0.00042847302,6.877483e-06,0.00017405838,0,0
145,-0.0152727515,0.0282836333,-1.03136289,-0.0006684632,-0.0010123197,0.00166133116,0.9991354,0.0010756304,0.0004285868,6.879615e-06,0.00017409089,0,0
146,-0.0133916987,0.0305867326,-1.0278697,-0.00106422522,-0.00106422522,0.00106422522,0.9991353,0.001075697,0.0004287047,6.8820036e-06,0.0001741369,0,0
147,-0.0116253579,0.0271226615,-1.02865839,-0.000416580733,-0.00147898169,0.00106422522,0.99913526,0.0010757626,0.00042879255,6.883848e-06,0.0001741829,0,0
148,-0.0128269419,0.0251541678,-1.03136265,0.00106422522,-0.00212845043,0.000354741729,0.9991352,0.0010757841,0.00042877236,6.883907e-06,0.00017421345,0,0
149,-0.0138785122,0.02726493,-1.03210127,0.00106422522,-0.00212845043,0.000118247241,0.99913526,0.001075737,0.00042871,6.8833756e-06,0.00017423289,0,0
150,-0.0152055984,0.0273174774,-1.02844131,0.000164924466,-0.00212845043,0.000455184374,0.99913526,0.0010757226,0.0004286875,6.883999e-06,0.00017426496,0,0
151,-0.0205307733,0.025219107,-1.02477992,-0.00106422522,-0.00177370885,0.00106422522,0.9991352,0.0010757564,0.00042872678,6.8857194e-06,0.00017430152,0,0
152,-0.019213384,0.0277748574,-1.02779114,-0.000354741729,-0.0020102032,0.000354741729,0.9991352,0.001075737,0.00042871124,6.885851e-06,0.0001743105,0,0
153,-0.0158445667,0.0271619316,-1.03400326,-0.000684067,-0.00212845043,0.000118247233,0.99913526,0.001075617,0.00042865283,6.884669e-06,0.00017431033,0,0
154,-0.01602371,0.0269576237,-1.03981745,-0.00212845043,-0.00174509385,0.001103641,0.99913543,0.0010753906,0.00042858903,6.8830013e-06,0.00017430418,0,0
155,-0.0177110285,0.026564,-1.04094172,-0.00255505857,-0.00106422522,0.000367880333,0.9991356,0.0010751387,0.000428471,6.880271e-06,0.00017428675,0,0
156,-0.0176224262,0.0238286257,-1.034155,-0.00212845043,-0.00177370862,-0.00212845043,0.9991356,0.0010750046,0.0004282893,6.8776208e-06,0.00017427627,0,0
157,-0.01677909,0.0230795946,-1.03107893,-0.00106422522,-0.0020102032,-0.00168919959,0.9991356,0.0010749727,0.0004281166,6.8758895e-06,0.00017426147,0,0
158,-0.01731178,0.0218533557,-1.03575027,-0.000354741729,-0.00173429307,0.00106422522,0.9991357,0.001074966,0.000428004,6.8750173e-06,0.00017424602,0,0
159,-0.0156989787,0.0233977344,-1.034866,-0.0004651721,-0.00199706457,0.00106422522,0.9991357,0.001074985,0.00042792936,6.8749255e-06,0.00017424635,0,0
160,-0.0143475756,0.0240752865,-1.03473389,-0.00106422522,-0.00279413839,0.000354741729,0.9991356,0.0010749825,0.0004278608,6.875037e-06,0.0001742565,0,0
161,-0.01861716,0.0197438449,-1.03957272,-0.000709483458,-0.00305982982,0.000118247233,0.9991357,0.0010749493,0.00042772802,6.8738045e-06,0.00017425566,0,0
162,-0.0197148342,0.01732347,-1.04004633,-0.00130071968,-0.00212845043,0.000748899241,0.99913573,0.0010749467,0.0004276292,6.873025e-06,0.00017425482,0,0
163,-0.0171510372,0.0220505316,-1.03711176,-0.000433573237,-0.00141976308,0.00106422522,0.99913573,0.0010749856,0.00042755337,6.872835e-06,0.00017425383,0,0
164,-0.0187378451,0.0257421043,-1.03157628,0.0005649591,-0.00106422522,0.001503409,0.9991357,0.0010750941,0.00042751996,6.873824e-06,0.00017426762,0,0
165,-0.01894126,0.0264843479,-1.02728975,0.00106422522,-0.00212845043,0.00212845043,0.9991355,0.001075283,0.00042755398,6.8763616e-06,0.00017430286,0,0
166,-0.01656766,0.0239648353,-1.02976716,0.00116639223,-0.00212845043,0.00141896692,0.99913543,0.0010754328,0.00042758478,6.877988e-06,0.0001743311,0,0
167,-0.0182178672,0.022799477,-1.02733767,0.00106422522,-0.00319267553,0.00106422522,0.9991353,0.0010756078,0.0004276129,6.8801073e-06,0.00017437666,0,0
168,-0.02039554,0.0222482625,-1.0242492,0.000709483458,-0.003965503,0.00141478959,0.9991352,0.0010758077,0.00042767444,6.8830536e-06,0.00017443171,0,0
169,-0.0175407,0.0235293675,-1.02728879,0.00130071968,-0.004256901,0.00212845043,0.9991351,0.0010759563,0.00042773518,6.885437e-06,0.00017447694,0,0
170,-0.0159380455,0.0260722879,-1.03074348,0.000433573237,-0.00248319213,-0.00212845043,0.99913514,0.0010758804,0.00042764895,6.8839795e-06,0.00017448475,0,0
171,-0.01670591,0.0244785231,-1.03628957,0.000144524427,-0.00224669767,-0.00320233032,0.9991353,0.0010757002,0.00042744377,6.880527e-06,0.00017447163,0,0
172,-0.0145204589,0.0265514348,-1.03276718,0.00106422522,-0.0018131244,-0.00106422522,0.9991353,0.0010756371,0.0004272808,6.8788345e-06,0.0001744693,0,0
173,-0.0144430175,0.0283817276,-1.02247846,0.000584364054,-0.00202334183,0.000421108649,0.9991352,0.0010757257,0.00042726367,6.8806517e-06,0.00017450306,0,0
174,-0.0162075683,0.0268759411,-1.02686131,-0.00106422522,-0.002093414,0.00106422522,0.9991352,0.0010757195,0.00042730974,6.8822465e-06,0.00017452188,0,0
175,-0.0148426266,0.0249091685,-1.03678572,-0.00212845043,-0.00140728813,-0.00106422522,0.9991353,0.0010755342,0.00042725736,6.880383e-06,0.0001745024,0,0
176,-0.012271761,0.0227887332,-1.03667593,-0.000709483458,-0.00117857952,-0.000354741729,0.9991353,0.0010754552,0.00042717796,6.878749e-06,0.00017449325,0,0
177,-0.0132051706,0.0228957236,-1.03273308,-0.0003096352,-0.001457085,0.000603169552,0.9991353,0.0010754445,0.0004271395,6.878539e-06,0.00017449907,0,0
178,-0.01856188,0.022768626,-1.03044224,-0.00106422522,-0.00154992018,0.00106422522,0.9991353,0.001075446,0.00042714723,6.8791296e-06,0.00017450574,0,0
179,-0.0232771356,0.0215869378,-1.03260839,-0.00131204131,-0.00193560694,0.000354741729,0.9991353,0.0010754194,0.0004271246,6.8787226e-06,0.00017449674,0,0
180,-0.0233840439,0.0246110111,-1.02795935,-0.00106422522,-0.00319267553,0.000118247241,0.99913526,0.0010754747,0.00042711856,6.8793656e-06,0.0001745019,0,0
181,-0.022117598,0.02773492,-1.0251075,-0.000354741729,-0.00318297558,-0.000326556,0.9991352,0.001075554,0.0004271149,6.880166e-06,0.00017450823,0,0
182,-0.0194168035,0.026009297,-1.03115559,0.0005912362,-0.00212845043,-0.00106422522,0.99913526,0.0010755596,0.0004270444,6.8789063e-06,0.00017449325,0,0
183,-0.0170516949,0.0225044023,-1.0346365,0.000197078756,-0.00212845043,0.00106422522,0.99913526,0.0010755833,0.00042702546,6.878762e-06,0.0001744984,0,0
184,-0.0182164516,0.01987126,-1.039052,6.569291e-05,-0.00177370862,0.00212845043,0.9991353,0.0010755607,0.0004270019,6.878106e-06,0.00017449907,0,0
185,-0.0195812657,0.0193190649,-1.03808248,0.00106422522,-0.00165546138,0.00227755518,0.9991353,0.0010755771,0.00042695244,6.8772865e-06,0.00017450073,0,0
186,-0.0162927136,0.0220646877,-1.03645718,0.000354741729,-0.00161604572,0.00212845043,0.9991353,0.0010755556,0.00042693593,6.877011e-06,0.00017450456,0,0
187,-0.0138944462,0.0270489063,-1.04210031,0.000293176563,-0.00160290708,0.00168355962,0.99913543,0.0010753762,0.00042685884,6.875057e-06,0.0001744856,0,0
188,-0.0178150758,0.02740823,-1.04154,0.00106422522,-0.00195326935,0.00106422522,0.99913555,0.0010752094,0.00042671134,6.8725594e-06,0.00017447147,0,0
189,-0.0222144,0.0242727939,-1.03565657,0.00130231213,-0.00171531492,-0.0002840523,0.99913555,0.0010751524,0.00042654743,6.8704494e-06,0.00017445932,0,0
190,-0.0187980291,0.0255062953,-1.03125393,0.00106422522,-0.001635997,-0.00212845043,0.99913555,0.0010751407,0.00042638526,6.8686086e-06,0.00017443902,0,0
191,-0.0153805939,0.0257547032,-1.03255332,-0.000769695849,-0.00196429924,0.00106422522,0.99913555,0.0010751489,0.00042638363,6.869624e-06,0.00017444101,0,0
192,-0.01489249,0.0255119856,-1.03754377,-0.00212845043,-0.002428475,0.00147296407,0.99913555,0.0010750741,0.00042640764,6.8703184e-06,0.000174445,0,0
193,-0.0137532251,0.0257566,-1.03953278,-0.00106422522,-0.00222845864,-0.00106422522,0.9991356,0.0010749656,0.0004263088,6.8686218e-06,0.00017443053,0,0
194,-0.0169542,0.0225829277,-1.03449917,0.00106422522,-0.00106422522,0.00106422522,0.99913555,0.0010750602,0.00042626171,6.8687527e-06,0.00017443403,0,0
195,-0.0194860343,0.023152642,-1.02517164,0.000354741729,-0.00109755422,0.00106422522,0.9991354,0.0010752645,0.00042632996,6.8713666e-06,0.00017446131,0,0
196,-0.0198416989,0.0218777042,-1.01994658,0.000118247241,-0.00212845043,-0.00106422522,0.9991352,0.0010755187,0.0004264046,6.8741456e-06,0.00017449308,0,0
197,-0.017681608,0.0173837151,-1.01869309,0.0004944669,-0.00177370862,-0.000354741729,0.99913496,0.0010758558,0.00042653564,6.8777126e-06,0.00017453237,0,0
198,-0.0130553273,0.0194664467,-1.021856,0.00106422522,-0.00130071968,0.000968918554,0.9991348,0.001076142,0.00042670078,6.8812687e-06,0.00017456997,0,0
199,-0.009234589,0.0234158989,-1.02795589,0.00106422522,-0.00114305678,0.00212845043,0.99913466,0.0010762751,0.00042686638,6.8840122e-06,0.00017460692,0,0
200,-0.0107279355,0.0219654571,-1.03389549,-0.000738871051,-0.00144524407,0.00106422522,0.99913466,0.0010762105,0.00042696446,6.8848135e-06,0.00017463957,0,0
201,-0.0117139993,0.0203426536,-1.03245735,-0.00212845043,-0.00225545675,0.00102458918,0.99913466,0.0010761367,0.00042704787,6.8857653e-06,0.00017467802,0,0
202,-0.009764042,0.0193134379,-1.029862,-0.00106422522,-0.00252552773,0.00212845043,0.9991346,0.0010761394,0.00042713317,6.8872037e-06,0.00017471651,0,0
203,-0.01448515,0.02059797,-1.03029907,0.00106422522,-0.00212845043,0.002467189,0.9991346,0.0010761316,0.0004271517,6.887427e-06,0.00017473368,0,0
204,-0.0194768216,0.0210261475,-1.0301193,0.00165402773,-0.001597066,0.00212845043,0.9991346,0.001076106,0.00042713867,6.8869476e-06,0.00017473816,0,0
205,-0.02000139,0.021657154,-1.032989,0.00106422522,-0.00106422522,0.00201025931,0.9991347,0.0010760204,0.00042711876,6.885752e-06,0.00017472634,0,0
206,-0.0167582761,0.0251226965,-1.03166687,0.000354741729,-0.00177370885,0.00212845043,0.9991347,0.0010759297,0.00042711795,6.8852596e-06,0.00017472518,0,0
207,-0.0143751549,0.0189536586,-1.02894747,0.000436383649,-0.0020102032,0.00319267553,0.99913466,0.0010759634,0.00042717124,6.886179e-06,0.0001747495,0,0
208,-0.0179753117,0.0126655428,-1.02934313,0.00106422522,-0.00208903477,0.00106422522,0.99913466,0.0010759973,0.00042712482,6.8852796e-06,0.0001747565,0,0
209,-0.0186870825,0.0139874732,-1.03159094,0.000354741729,-0.0024700535,0.000354741729,0.99913466,0.0010759511,0.00042703524,6.883645e-06,0.000174744,0,0
210,-0.0172967371,0.0178460851,-1.03087533,0.000330835523,-0.00224231812,0.0009879012,0.9991347,0.0010759102,0.00042695875,6.882647e-06,0.00017473352,0,0
211,-0.0200884957,0.01945781,-1.03014851,0.00106422522,-0.00181166455,0.00212845043,0.9991347,0.0010759091,0.00042690034,6.882181e-06,0.00017472802,0,0
212,-0.0216701236,0.0212971345,-1.0343008,-0.00106422522,-0.00166811328,0.00127044832,0.99913484,0.001075762,0.00042684234,6.8807963e-06,0.00017470751,0,0
213,-0.0184538439,0.02500269,-1.03454554,-0.000354741729,-0.00126552116,-0.00106422522,0.9991349,0.0010755961,0.00042668448,6.877634e-06,0.00017466921,0,0
214,-0.0159169063,0.0223316252,-1.0263263,-0.000118247241,-0.00148606545,0.00212845043,0.99913484,0.0010756765,0.00042668957,6.8788145e-06,0.00017468419,0,0
215,-0.0152340205,0.0219295528,-1.02733,-3.94157469e-05,-0.00226906384,0.00219015987,0.9991348,0.0010757329,0.00042671664,6.879943e-06,0.00017469485,0,0
216,-0.0150063923,0.02635282,-1.03433788,-1.31385823e-05,-0.00217532157,-0.00106422522,0.9991349,0.001075569,0.00042658995,6.877293e-06,0.00017466255,0,0
217,-0.0168836415,0.0278272424,-1.03195381,-4.37952758e-06,-0.00143459067,-0.000354741729,0.99913496,0.0010754706,0.00042648282,6.8756794e-06,0.00017464423,0,0
218,-0.0179976728,0.026528351,-1.03181016,-0.000785284035,-0.00118768029,0.0006714363,0.999135,0.001075403,0.0004264383,6.8750765e-06,0.00017463141,0,0
219,-0.01592761,0.0243050233,-1.02980912,-0.00212845043,-0.00110537687,0.00106422522,0.99913496,0.0010753896,0.00042647793,6.875758e-06,0.00017463224,0,0
220,-0.0162141528,0.0225873515,-1.029142,0.00106422522,-0.00107794243,0.000354741729,0.99913496,0.0010754757,0.0004264316,6.8751747e-06,0.00017462208,0,0
221,-0.0150075825,0.02038719,-1.03331423,0.00222432334,-0.00106879754,-0.0005912362,0.99913496,0.0010755074,0.00042631858,6.873175e-06,0.0001745976,0,0
222,-0.0126522668,0.0196538027,-1.03096151,0.00106422522,-0.00177523273,-0.00106422522,0.9991349,0.0010755524,0.00042623325,6.872402e-06,0.00017459512,0,0
223,-0.01495961,0.0208741855,-1.02757311,0.000659449259,-0.00272019464,2.31888262e-05,0.99913484,0.0010756472,0.0004261963,6.8732998e-06,0.00017460992,0,0
224,-0.0126362769,0.022420302,-1.02921057,0.00106422522,-0.0023256985,0.00212845043,0.9991348,0.0010757553,0.00042623162,6.875011e-06,0.00017462607,0,0
225,-0.0144659989,0.0237494763,-1.02829158,-0.000354741729,-0.00148471631,0.000709483458,0.9991347,0.0010757862,0.00042627877,6.876283e-06,0.0001746434,0,0
226,-0.0189821552,0.0256573781,-1.02798522,-0.0008277307,-0.00106422522,0.00106422522,0.9991347,0.0010758037,0.00042633872,6.8775025e-06,0.0001746534,0,0
227,-0.0162557717,0.02434022,-1.02772033,7.883149e-05,-0.00216385256,0.00135082775,0.99913466,0.0010758804,0.00042640316,6.8789063e-06,0.00017467252,0,0
228,-0.0150214555,0.0224363226,-1.029097,0.000381018937,-0.004256901,0.00106422522,0.9991346,0.0010759344,0.0004264332,6.880035e-06,0.00017470052,0,0
229,-0.0139589747,0.0242430959,-1.02646339,-0.000582477136,-0.00283793383,0.0007094836,0.9991346,0.0010759553,0.00042649035,6.881262e-06,0.00017472252,0,0
230,-0.0149068981,0.028263323,-1.02135372,-0.000903642562,-0.002364945,-0.00106422522,0.99913454,0.0010759655,0.00042652103,6.882279e-06,0.00017474183,0,0
231,-0.01831532,0.02992892,-1.02664912,-0.00101069768,-0.0025620237,-0.000842659734,0.99913466,0.001075866,0.000426506,6.881925e-06,0.00017473652,0,0
232,-0.01831214,0.0277171936,-1.0316695,-0.00104638271,-0.0022729747,0.00106422522,0.9991347,0.0010757728,0.00042651696,6.8815966e-06,0.00017472985,0,0
233,-0.0171717554,0.0237247422,-1.03318024,-0.00106422522,-0.00288610836,0.00106422522,0.9991348,0.0010757053,0.00042651696,6.881111e-06,0.00017473118,0,0
234,-0.01760543,0.0217428822,-1.03596246,-0.000354741729,-0.00379997,0.00141896692,0.99913484,0.0010756304,0.00042647021,6.8800086e-06,0.00017472652,0,0
235,-0.01872655,0.0228726268,-1.03575051,-0.000118247241,-0.004256901,0.0008277308,0.99913496,0.0010755331,0.00042637833,6.8784734e-06,0.00017471735,0,0
236,-0.0173098911,0.0242257714,-1.02933216,-3.94157469e-05,-0.003951171,0.000275910279,0.99913496,0.0010755238,0.00042631145,6.878106e-06,0.00017472118,0,0
237,-0.0197673589,0.0228864551,-1.02621615,-0.00039560406,-0.00319267553,0.00106422522,0.99913496,0.0010755761,0.00042631043,6.878985e-06,0.00017473135,0,0
238,-0.0189589113,0.0227655377,-1.03038585,-0.00106422522,-0.00258157449,0.000571980956,0.99913496,0.0010755524,0.00042630496,6.878841e-06,0.00017472218,0,0
239,-0.0151087,0.0250038784,-1.03242683,0.00106422522,-0.00212845043,-0.00106422522,0.999135,0.0010755208,0.00042618814,6.8767417e-06,0.00017469702,0,0
240,-0.0144763375,0.0236341059,-1.03164232,0.00182099,-0.00248319213,-0.000354741729,0.999135,0.0010755372,0.00042607807,6.8755485e-06,0.00017468985,0,0
241,-0.0162186753,0.02154991,-1.02959049,0.00106422522,-0.00260143937,0.00106422522,0.99913496,0.0010756078,0.00042605007,6.876099e-06,0.00017470002,0,0
242,-0.017776018,0.0236221049,-1.0279299,0.000354741729,-0.00264085527,0.00143764412,0.9991349,0.0010756785,0.0004260736,6.877352e-06,0.00017471168,0,0
243,-0.0153654441,0.024312837,-1.03258467,-0.0003337387,-0.00300873537,0.00106422522,0.99913496,0.0010756539,0.00042608863,6.8776403e-06,0.00017471351,0,0
244,-0.0152129605,0.0209623519,-1.03543842,-0.00106422522,-0.00277662021,0.000933933654,0.99913496,0.0010755992,0.00042609227,6.8774043e-06,0.00017471718,0,0
245,-0.0164642166,0.0187062,-1.0321579,-0.00106422522,-0.00198976533,0.00106422522,0.99913496,0.0010756202,0.0004261118,6.8777126e-06,0.00017472618,0,0
246,-0.0167185422,0.0200700369,-1.02959955,-0.00106422522,-0.00172748044,-0.00126080075,0.9991349,0.0010756109,0.000426074,6.8769323e-06,0.00017471834,0,0
247,-0.0181054,0.0255702212,-1.03183925,-0.000354741729,-0.00199479377,-0.00212845043,0.99913496,0.0010755167,0.0004259546,6.874801e-06,0.00017468535,0,0
248,-0.0188932065,0.0257760119,-1.03079545,-0.000118247241,-0.00172915647,0.00212845043,0.99913496,0.0010755509,0.0004259806,6.8757254e-06,0.00017468251,0,0
249,-0.0167144015,0.0201479942,-1.03012192,-0.0004530641,-0.0005763855,0.00316892331,0.9991349,0.0010756704,0.00042611017,6.8776603e-06,0.00017469551,0,0
250,-0.0156626124,0.0198995918,-1.03412914,-0.00106422522,-0.000192128486,0.00106422522,0.99913484,0.0010756606,0.0004261733,6.877391e-06,0.00017468486,0,0
251,-0.0148237348,0.0222581979,-1.0349766,-0.000354741729,-0.00112826808,0.000354741729,0.9991349,0.0010756191,0.000426163,6.876335e-06,0.00017467153,0,0
252,-0.0164972339,0.0207657535,-1.03167832,-0.000118247241,-0.00144031458,-0.00106422522,0.99913484,0.0010756057,0.00042610246,6.87505e-06,0.00017466288,0,0
253,-0.0160785038,0.0223841574,-1.028463,0.0003213146,-0.00189907162,-0.000354741729,0.9991348,0.0010756559,0.00042606727,6.8749323e-06,0.00017465955,0,0
254,-0.0112188756,0.024876751,-1.02560091,0.00106422522,-0.00205199071,-0.000118247241,0.9991347,0.0010757564,0.00042606748,6.875758e-06,0.00017466705,0,0
255,-0.0113893645,0.0235917289,-1.02399588,0.00106422522,-0.00174822228,-3.94157469e-05,0.9991346,0.0010758794,0.00042609675,6.877155e-06,0.00017468652,0,0
256,-0.01730557,0.023488909,-1.02687883,0.00100858824,-0.00235644937,0.000398827484,0.99913454,0.0010759532,0.00042610956,6.87808e-06,0.00017469884,0,0
257,-0.0179755539,0.0232918765,-1.0291419,0.00106422522,-0.00255919178,0.00106422522,0.99913454,0.0010760179,0.0004261329,6.878867e-06,0.00017470901,0,0
258,-0.01722232,0.0246910434,-1.029408,-0.000354741729,-0.00298151444,0.000462526077,0.99913454,0.0010760158,0.00042616748,6.8795953e-06,0.00017472319,0,0
259,-0.0187616069,0.0269477963,-1.02217245,-0.0008277307,-0.004256901,-0.00106422522,0.9991345,0.001076064,0.0004261867,6.88098e-06,0.00017475366,0,0
260,-0.0166705344,0.028351089,-1.01845849,-0.00106422522,-0.00385721377,-0.00106422522,0.9991344,0.0010761399,0.00042624303,6.8829554e-06,0.00017478084,0,0
261,-0.0166245531,0.02751677,-1.028451,-0.000354741729,-0.00212845043,-0.00106422522,0.9991345,0.001076068,0.0004262241,6.882017e-06,0.0001747655,0,0
262,-0.0151443826,0.0230068918,-1.03731573,0.000423405669,-0.00248319213,-0.000354741729,0.9991346,0.0010759481,0.00042613494,6.8796676e-06,0.00017474683,0,0
263,-0.0123723457,0.0203642771,-1.03636444,0.00106422522,-0.002956181,-0.000118247241,0.99913466,0.0010758897,0.0004260247,6.877739e-06,0.000174742,0,0
264,-0.0140525,0.0206227284,-1.0370239,0.000354741729,-0.00319267553,0.000331395131,0.9991348,0.001075779,0.00042591587,6.87606e-06,0.00017473334,0,0
265,-0.0165656768,0.0218482018,-1.03610432,-0.000945978041,-0.00106422522,0.00106422522,0.99913484,0.0010756544,0.00042586794,6.8748536e-06,0.00017471434,0,0
266,-0.0170778818,0.0237215366,-1.02993834,-0.00137955125,-0.0003433412,-0.00106422522,0.99913484,0.0010755869,0.00042581736,6.8737913e-06,0.00017469618,0,0
267,-0.013016846,0.0228811372,-1.02625549,-0.00010510868,-0.00106422522,-0.00103941851,0.9991348,0.0010756488,0.0004257886,6.873772e-06,0.00017468819,0,0
268,-0.014104574,0.0222754832,-1.02405131,0.00212845043,-0.00212845043,0.00106422522,0.99913466,0.0010758414,0.00042580563,6.8753648e-06,0.00017469985,0,0
269,-0.0172340777,0.0233756825,-1.02478135,0.000709483458,-0.00212845043,0.00170538749,0.99913454,0.0010759674,0.00042590388,6.8776862e-06,0.00017471651,0,0
270,-0.0143709956,0.0243934561,-1.02648962,0.000236494481,-0.00212845043,0.00106422522,0.9991345,0.0010760537,0.00042600822,6.8794443e-06,0.00017473252,0,0
271,-0.0139049152,0.0239189118,-1.029826,7.88314937e-05,-0.00212845043,0.000709483458,0.9991345,0.001076068,0.000426074,6.8801332e-06,0.00017474433,0,0
272,-0.016190961,0.0239234921,-1.03224027,-0.000399211363,-0.00177370862,0.00165546138,0.9991345,0.0010760311,0.00042613922,6.8805534e-06,0.0001747525,0,0
273,-0.0159764141,0.0237622578,-1.03304493,-0.00106422522,-0.00165546138,0.000906562258,0.99913454,0.001075944,0.00042617798,6.880179e-06,0.00017475316,0,0
274,-0.0142772943,0.0204533041,-1.03461516,-0.000354741729,-0.00197078753,-0.0004072961,0.9991346,0.0010758527,0.00042612784,6.878408e-06,0.00017474299,0,0
275,-0.0141992019,0.0190247986,-1.03546417,-0.000118247241,-0.00172115432,0.000218976362,0.99913466,0.0010757702,0.0004260622,6.876683e-06,0.00017472802,0,0
276,-0.01384765,0.0211527962,-1.02874851,-0.00125088112,-0.00106422522,0.00113721739,0.9991346,0.0010757651,0.00042609838,6.8773124e-06,0.00017473218,0,0
277,-0.0150325494,0.0213738475,-1.02634716,-0.00319267553,-0.00126898044,0.000379072473,0.9991346,0.001075737,0.00042618308,6.878539e-06,0.00017473933,0,0
278,-0.0139626721,0.0190061256,-1.03091776,-0.00216464419,-0.00212845043,0.0001263575,0.9991346,0.0010757068,0.00042620522,6.8784343e-06,0.00017473185,0,0
279,-0.0123039633,0.0211465731,-1.02983713,0.00106422522,-0.00248319213,0.00106422522,0.99913454,0.0010757815,0.00042618552,6.8784475e-06,0.00017472985,0,0
280,-0.0167966336,0.0228366181,-1.02801216,0.00106422522,-0.00153721415,0.000354741729,0.99913454,0.001075816,0.000426163,6.878264e-06,0.00017472601,0,0
281,-0.02187492,0.0203075185,-1.02740383,0.00106422522,-0.00157662993,0.000118247241,0.9991345,0.0010758897,0.00042613453,6.878106e-06,0.00017472234,0,0
282,-0.0201497134,0.0196272451,-1.03224659,-4.6816247e-05,-0.00158976857,3.94157469e-05,0.99913454,0.0010758829,0.00042610793,6.8772406e-06,0.00017470452,0,0
283,-0.01387803,0.017935643,-1.0332098,-0.00212845043,-0.000529922836,1.31385823e-05,0.99913454,0.0010758465,0.00042613494,6.87686e-06,0.00017469602,0,0
284,-0.0130895516,0.0185111,-1.03434467,-0.00212845043,0.00106422522,4.37952758e-06,0.99913454,0.0010757779,0.0004261376,6.875712e-06,0.0001746752,0,0
285,-0.0147798508,0.0200050026,-1.03732717,-0.000792548351,0.0007148376,0.000393046881,0.9991346,0.0010756837,0.00042607827,6.8736863e-06,0.00017464356,0,0
286,-0.0130646378,0.0182243232,-1.03522885,0.00106422522,-0.00106422522,0.00106422522,0.9991346,0.0010757104,0.00042601026,6.872638e-06,0.00017463457,0,0
287,-0.0128184212,0.0184445661,-1.03697073,0.00106422522,-0.00212845043,0.00212845043,0.9991346,0.0010757109,0.0004259688,6.872219e-06,0.00017463007,0,0
288,-0.0156660359,0.0196573045,-1.03608656,0.000927943562,-0.00212845043,0.000859738269,0.9991346,0.0010756806,0.00042588843,6.8711965e-06,0.00017462275,0,0
289,-0.01938217,0.0229912382,-1.03465259,0.00106422522,-0.00248319213,-0.00212845043,0.99913466,0.0010755956,0.00042569847,6.8685363e-06,0.00017459778,0,0
290,-0.0228995252,0.0265439544,-1.03645325,0.000354741729,-0.00260143937,-0.001199723,0.99913484,0.0010754736,0.0004255228,6.8663426e-06,0.00017456514,0,0
291,-0.0201657265,0.0236591827,-1.03851831,-0.000417231,-0.00157662993,0.00106422522,0.9991349,0.0010754224,0.00042545708,6.8655895e-06,0.00017454568,0,0
292,-0.0168130547,0.0187913422,-1.03643978,-0.00106422522,-0.00123502675,0.00106422522,0.9991349,0.0010754613,0.00042545347,6.8658906e-06,0.00017454702,0,0
293,-0.0178113822,0.0212377384,-1.03542137,-0.001228084,-0.00112115906,0.00106422522,0.9991349,0.0010754798,0.00042546255,6.8662966e-06,0.00017454235,0,0
294,-0.0155399917,0.0248201322,-1.03068733,-0.00106422522,-0.00179268664,-0.00106422522,0.99913484,0.0010755064,0.00042544576,6.8665977e-06,0.00017454302,0,0
295,-0.01787531,0.0245494191,-1.0216223,0.000354741729,-0.002371271,-0.00178213511,0.99913466,0.001075697,0.00042543784,6.868261e-06,0.00017456397,0,0
296,-0.0215834379,0.0255985036,-1.02218139,0.000118247233,-0.00212845043,-0.00106422522,0.9991346,0.0010758588,0.00042547757,6.870253e-06,0.00017457479,0,0
297,-0.01891323,0.0274130423,-1.02757609,3.94157432e-05,-0.0024059182,-0.000354741729,0.99913454,0.0010759543,0.00042553642,6.8717663e-06,0.00017458062,0,0
298,-0.0160700362,0.0260647628,-1.02807224,1.31385941e-05,-0.00319267553,-0.000841226662,0.9991345,0.0010760486,0.0004255824,6.8731883e-06,0.00017460527,0,0
299,-0.0141457422,0.02317393,-1.02384317,-0.00106422522,-0.00177370862,-0.00212845043,0.9991344,0.0010761583,0.00042564672,6.8747026e-06,0.0001746339,0,0
300,-0.01708504,0.0228613615,-1.0242238,-0.000354741729,-0.00165546138,-0.000709483458,0.99913436,0.0010762828,0.00042571715,6.876427e-06,0.00017465689,0,0
301,-0.02050621,0.0243847761,-1.02874517,-0.000286613416,-0.00161604572,0.0008277308,0.99913436,0.0010763264,0.00042579914,6.8776667e-06,0.00017466655,0,0
302,-0.0200189967,0.0248925816,-1.02960122,-0.00106422522,-0.00124816538,0.0009853938,0.99913436,0.0010763346,0.00042590752,6.8787817e-06,0.00017467802,0,0
303,-0.0164386239,0.0239225272,-1.02825892,-0.00169746811,-0.00106422522,0.00139268988,0.9991343,0.0010763612,0.00042605854,6.880468e-06,0.00017470002,0,0
304,-0.0141058443,0.0205067266,-1.026835,-0.00212845043,-0.00103297387,0.00152845506,0.99913424,0.0010764054,0.00042623223,6.88245e-06,0.00017473017,0,0
305,-0.013653771,0.0214840118,-1.02896452,-0.000709483458,-0.00106422522,0.00106422522,0.9991342,0.0010763982,0.00042632225,6.882778e-06,0.00017473917,0,0
306,-0.0149679231,0.024739461,-1.03227854,-0.000236494481,-0.000354741729,0.000354741729,0.99913424,0.00107627,0.000426332,6.881321e-06,0.00017472402,0,0
307,-0.0152432136,0.0237087253,-1.02801216,0.000266995165,-0.00118247245,0.000422926,0.99913424,0.0010762393,0.00042634056,6.8809404e-06,0.00017473035,0,0
308,-0.01240529,0.0212492626,-1.02382314,0.00106422522,-0.002522608,0.00106422522,0.9991341,0.0010763253,0.00042638078,6.8820364e-06,0.000174756,0,0
309,-0.0125986384,0.0202666819,-1.026333,0.00128566078,-0.0022598363,-0.000354741729,0.9991341,0.0010763274,0.00042635234,6.8814916e-06,0.00017475983,0,0
310,-0.0155927753,0.0215667579,-1.02505362,0.00106422522,-0.001817504,-0.0008277307,0.9991341,0.0010763227,0.0004263015,6.880888e-06,0.00017476083,0,0
311,-0.0174046233,0.02379048,-1.02690589,0.0009869629,-0.00202480145,-0.00027591025,0.9991342,0.0010762864,0.00042624606,6.8802187e-06,0.00017475466,0,0
312,-0.018008573,0.0261593256,-1.03256893,0.00106422522,-0.003158126,0.000972255133,0.99913424,0.0010761804,0.00042617615,6.8791887e-06,0.00017474449,0,0
313,-0.0209768172,0.024344774,-1.02745783,0.00106422522,-0.00282641756,0.000678826764,0.9991343,0.0010761777,0.0004261264,6.8789723e-06,0.00017475283,0,0
314,-0.0201758668,0.02211232,-1.02868378,0.000354741729,-0.00200636429,0.000935759,0.9991343,0.0010761695,0.00042611262,6.878749e-06,0.00017475017,0,0
315,-0.0186067987,0.02201921,-1.03560293,0.000118247241,-0.00208775513,0.00102140324,0.9991344,0.0010760588,0.00042605813,6.8771355e-06,0.00017473017,0,0
316,-0.0174327344,0.0221509337,-1.03758383,0.0004515507,-0.002469627,-0.00106422522,0.9991346,0.0010758907,0.0004258929,6.873772e-06,0.00017470152,0,0
317,-0.0178551823,0.0238224473,-1.03368676,0.00106422522,-0.00224217586,-0.000575394544,0.99913466,0.0010758005,0.0004257305,6.8714453e-06,0.00017468003,0,0
318,-0.0181587581,0.02503066,-1.03043461,0.000354741729,-0.001811617,0.00212845043,0.99913466,0.0010757924,0.00042571145,6.871904e-06,0.00017467786,0,0
319,-0.0171206277,0.024131313,-1.032443,-0.00106422522,-0.00212845043,0.00175401848,0.99913466,0.001075735,0.00042573377,6.8723234e-06,0.00017467685,0,0
320,-0.0154725015,0.0236687716,-1.02985728,-0.00145958178,-0.000709483458,-0.00106422522,0.99913466,0.0010756806,0.00042571186,6.8715044e-06,0.00017466355,0,0
321,-0.0160624478,0.0235145912,-1.02850711,-0.00106422522,-0.00111891166,-0.000354741729,0.99913466,0.0010756857,0.00042570822,6.8715763e-06,0.00017465689,0,0
322,-0.0182122216,0.0229749158,-1.02887094,-0.00141896692,-0.00319267553,0.0005912362,0.99913466,0.0010757063,0.00042573642,6.8726777e-06,0.00017466555,0,0
323,-0.01795225,0.02133018,-1.02655077,-0.0008277308,-0.00177370862,-0.000157662973,0.9991346,0.0010757872,0.0004257687,6.873385e-06,0.00017466689,0,0
324,-0.017540073,0.0246881843,-1.0274049,-0.000275910279,-0.00106422522,-0.00111677952,0.99913454,0.001075818,0.00042576322,6.873123e-06,0.00017465255,0,0
325,-0.01284539,0.0275978837,-1.02801514,-9.197008e-05,-0.000999145,-0.00106422522,0.99913454,0.0010758262,0.00042576424,6.8730315e-06,0.00017464356,0,0
326,-0.0109549733,0.0251498148,-1.026591,-3.06566944e-05,-0.00106422522,-0.000197283167,0.9991345,0.0010758938,0.00042580807,6.8740337e-06,0.00017465689,0,0
327,-0.0137428036,0.02335723,-1.02774382,-0.000719702337,-0.00141896692,0.00106422522,0.9991344,0.0010759481,0.00042589454,6.8756535e-06,0.0001746752,0,0
328,-0.0136955185,0.0201555341,-1.03008127,-0.00106422522,-0.00153721415,0.00023295579,0.99913436,0.0010759674,0.00042595298,6.8762174e-06,0.00017468468,0,0
329,-0.0125404336,0.0164841358,-1.03265083,-0.0011163766,-0.00122188823,-0.00212845043,0.9991344,0.0010759318,0.00042590956,6.8746895e-06,0.0001746752,0,0
330,-0.0124809258,0.0173762217,-1.0289501,-0.00106422522,-0.001826263,-0.000354741729,0.99913436,0.0010759819,0.00042591567,6.875234e-06,0.00017468502,0,0
331,-0.013437652,0.0189756677,-1.02641439,-0.00106422522,-0.00202772114,-0.000118247233,0.9991343,0.0010760415,0.0004259473,6.8763484e-06,0.00017469852,0,0
332,-0.0150586441,0.0198343378,-1.03256786,-0.000354741729,-0.002094874,0.00106422522,0.9991343,0.0010760332,0.00042595706,6.8765057e-06,0.00017469501,0,0
333,-0.0134830894,0.0258171763,-1.02973616,0.000405796251,-0.00211725826,0.00149097573,0.9991343,0.0010760516,0.00042598607,6.8773584e-06,0.00017470351,0,0
334,-0.0168641545,0.0279742163,-1.022119,0.00106422522,-0.00106422522,0.00106422522,0.99913424,0.0010761541,0.00042604844,6.8790705e-06,0.00017472485,0,0
335,-0.0207581036,0.0275539067,-1.0260905,0.000354741729,-0.000714328839,0.000354741729,0.99913424,0.00107615,0.00042608986,6.8793265e-06,0.00017472102,0,0
336,-0.0176615547,0.0244841147,-1.0279026,0.000118247241,-0.00106422522,0.000421139644,0.99913424,0.0010761711,0.00042613535,6.879484e-06,0.00017472218,0,0
337,-0.0176059362,0.0210194439,-1.02639067,-0.0007144775,-0.00212845043,0.00106422522,0.9991342,0.0010762321,0.00042621698,6.8807303e-06,0.00017474333,0,0
338,-0.0140066668,0.02230596,-1.02897918,-0.00212845043,-0.00248319213,0.00125766383,0.9991342,0.0010761932,0.00042631532,6.8816953e-06,0.00017475549,0,0
339,-0.0113420663,0.0228975583,-1.03049314,-0.002130953,-0.00212845043,0.00106422522,0.99913424,0.0010761141,0.00042638282,6.881938e-06,0.00017476383,0,0
340,-0.0163132418,0.0216299146,-1.032137,-0.00106422522,-0.00160934438,-0.000181866315,0.9991343,0.0010759957,0.00042633608,6.8802383e-06,0.00017475283,0,0
341,-0.0178075377,0.0207190868,-1.02829039,-0.000354741729,-0.00106422522,-0.00212845043,0.99913436,0.0010759328,0.0004262227,6.8778963e-06,0.00017473084,0,0
342,-0.0184683967,0.0230196435,-1.02619445,0.00106422522,-0.00212845043,-0.000709483458,0.99913436,0.0010759598,0.00042612356,6.8768863e-06,0.00017471552,0,0
343,-0.0177121218,0.0270417035,-1.02663517,0.000354741729,-0.00212845043,-0.00130071968,0.99913436,0.0010759153,0.00042603543,6.8757977e-06,0.00017469485,0,0
344,-0.0164834689,0.0265920255,-1.02515447,0.000118247241,-0.00141896692,-0.00149779848,0.99913436,0.00107592,0.00042597266,6.8752074e-06,0.00017468336,0,0
345,-0.01705048,0.0233496856,-1.02645123,0.000483023236,-0.00153721415,-0.000499266142,0.99913436,0.0010759787,0.0004259351,6.8751287e-06,0.00017467918,0,0
346,-0.0149608376,0.0201530214,-1.02346551,0.00106422522,-0.00157662993,0.00106422522,0.99913424,0.0010761715,0.00042598182,6.8768863e-06,0.00017469918,0,0
347,-0.0165429357,0.02022679,-1.01986611,0.000354741729,-0.00158976857,0.000354741729,0.99913406,0.0010763597,0.0004260667,6.8791687e-06,0.00017472684,0,0
348,-0.0173958223,0.0217162222,-1.022247,0.000118247241,-0.00159414811,0.000118247241,0.999134,0.001076472,0.00042613962,6.8806125e-06,0.00017474017,0,0
349,-0.0170290768,0.0217244178,-1.02336609,3.94157469e-05,-0.00124086614,0.000483103446,0.99913394,0.0010765652,0.00042622187,6.881925e-06,0.00017475583,0,0
350,-0.0190227125,0.0241685566,-1.02390194,1.31385823e-05,-0.00112310553,0.00106422522,0.99913394,0.0010766161,0.0004263064,6.883067e-06,0.00017476917,0,0
351,-0.0170830917,0.0244949888,-1.02603376,-0.000386560219,-0.0003743685,0.000354741729,0.99913394,0.0010765914,0.00042636838,6.8830536e-06,0.00017476967,0,0
352,-0.0149717079,0.0223251525,-1.03081334,-0.00106422522,-0.000479531242,0.0003379672,0.999134,0.0010764854,0.00042639664,6.8820564e-06,0.00017476316,0,0
353,-0.0155699961,0.0212763529,-1.03387129,-0.000354741729,-0.00122406892,0.00106422522,0.99913406,0.0010763643,0.000426369,6.880435e-06,0.00017475267,0,0
354,-0.0164204668,0.020275712,-1.03358853,-0.000330476643,-0.00147224811,-0.00106422522,0.9991342,0.0010762012,0.00042624708,6.877411e-06,0.00017472985,0,0
355,-0.0145880729,0.0181518,-1.03414536,-0.00106422522,-0.002264458,-0.0006514658,0.99913424,0.0010760546,0.0004261309,6.8751024e-06,0.000174711,0,0
356,-0.0139772743,0.0192341935,-1.03221512,0.00106422522,-0.00217378628,0.00212845043,0.9991343,0.0010760521,0.00042605854,6.87448e-06,0.00017470335,0,0
357,-0.0152385188,0.0208970755,-1.03450143,0.00183076388,-0.00143407891,0.000709483458,0.99913436,0.0010759716,0.00042592865,6.872304e-06,0.00017467768,0,0
358,-0.0137058087,0.0204748064,-1.03347313,0.00106422522,-0.00118750974,0.000236494481,0.9991344,0.0010759102,0.00042582426,6.870777e-06,0.00017466205,0,0
359,-0.0117300609,0.0214733724,-1.03150272,-0.00106422522,-0.00181480346,-0.000214817017,0.9991344,0.0010758314,0.00042577277,6.8704494e-06,0.00017465989,0,0
360,-0.0100949155,0.0235965922,-1.03654253,-0.0009130591,-0.00237864326,-0.00106422522,0.99913454,0.0010756591,0.00042564634,6.868484e-06,0.0001746364,0,0
361,-0.0137816379,0.0251181349,-1.03740871,0.00106422522,-0.00185710622,-0.00212845043,0.99913466,0.0010755012,0.00042541086,6.8650133e-06,0.00017459827,0,0
362,-0.0226602852,0.0207425039,-1.03004777,0.000875566853,-0.001328519,-0.002024488,0.99913466,0.0010755177,0.00042523225,6.863521e-06,0.00017458045,0,0
363,-0.0213880632,0.0183073971,-1.0253154,-0.00106422522,-0.00150706491,-0.00106422522,0.9991346,0.0010756565,0.00042521668,6.8648233e-06,0.00017457796,0,0
364,-0.0164066982,0.01961158,-1.03220141,-0.0008624852,-0.00192132185,-0.000354741729,0.9991346,0.0010757282,0.00042521546,6.8653735e-06,0.00017456197,0,0
365,-0.0147462441,0.0218366738,-1.03547335,0.00106422522,-0.00170466583,0.00106422522,0.9991346,0.0010758088,0.0004252029,6.865727e-06,0.00017455465,0,0
366,-0.01468104,0.025670819,-1.03428543,0.00106422522,-0.00198718882,0.000354741729,0.9991346,0.0010758375,0.00042518464,6.866048e-06,0.00017455847,0,0
367,-0.0187283158,0.0223915745,-1.03307569,0.00106422522,-0.00319267553,0.000118247241,0.99913454,0.0010758989,0.00042515466,6.866611e-06,0.00017457597,0,0
368,-0.0195891261,0.0217867736,-1.02551091,0.000320094347,-0.00356020918,-0.000302900153,0.9991345,0.0010760583,0.00042518546,6.8687723e-06,0.00017460925,0,0
369,-0.0156442914,0.0243521016,-1.02185,-0.00106422522,-0.00319267553,-0.00106422522,0.99913436,0.001076195,0.0004252793,6.871609e-06,0.0001746419,0,0
370,-0.0125389816,0.024067888,-1.025838,0.000354741729,-0.00248319213,-0.000354741729,0.9991343,0.00107631,0.00042535205,6.8734703e-06,0.00017466355,0,0
371,-0.0098762745,0.024786951,-1.02781832,0.00106422522,-0.00153721415,-0.00106422522,0.9991343,0.0010763643,0.00042538327,6.8741324e-06,0.00017467885,0,0
372,-0.0104535492,0.02502664,-1.02896678,0.00114546588,-0.00122188823,-0.000199484813,0.99913424,0.001076389,0.00042542221,6.874919e-06,0.00017469618,0,0
373,-0.0160170682,0.0281989854,-1.03358138,0.00106422522,-0.00106422522,0.00212845043,0.99913436,0.0010763253,0.00042548182,6.8755157e-06,0.00017470018,0,0
374,-0.0173832942,0.0292564332,-1.033492,-0.00106422522,-0.000354741729,0.002801456,0.99913436,0.0010762152,0.000425623,6.87667e-06,0.00017470917,0,0
375,-0.0155600561,0.02733027,-1.02776563,-0.00212845043,-0.0007856155,0.00212845043,0.99913436,0.0010761896,0.0004258139,6.8787886e-06,0.00017473585,0,0
376,-0.0154405916,0.0266882163,-1.02650785,-0.000709483458,-0.00212845043,0.000709483458,0.9991343,0.0010761787,0.00042591768,6.879628e-06,0.00017474934,0,0
377,-0.0168656129,0.0248465929,-1.02690232,0.000460570853,-0.000709483458,0.00106422522,0.9991343,0.0010761829,0.0004260005,6.8797594e-06,0.0001747465,0,0
378,-0.0183171835,0.02488376,-1.02198827,0.00106422522,-0.000945978041,0.001291227,0.99913424,0.0010762824,0.00042610813,6.8810587e-06,0.0001747595,0,0
379,-0.0179872382,0.0266865138,-1.0195365,0.00106422522,-0.00102480955,0.00106422522,0.9991341,0.0010763822,0.00042623488,6.88266e-06,0.00017477201,0,0
380,-0.0172262136,0.0258225873,-1.02734554,0.00024278507,-0.00105108658,-0.000354741729,0.9991342,0.001076306,0.00042627836,6.8817676e-06,0.000174758,0,0
381,-0.017623581,0.02488357,-1.036459,-0.00106422522,-0.00105984567,-0.000118247233,0.99913436,0.0010760792,0.00042625278,6.879202e-06,0.00017472684,0,0
382,-0.017430516,0.0240822826,-1.03819466,-0.000354741729,-0.00106276537,0.00106422522,0.9991345,0.0010758959,0.000426191,6.8766044e-06,0.00017469969,0,0
383,-0.0167151187,0.02055998,-1.03600633,-0.000283921661,-0.00106422522,0.00140326994,0.99913454,0.0010757872,0.00042614085,6.8747618e-06,0.00017468385,0,0
384,-0.01891806,0.0190603584,-1.02892923,-0.00106422522,-0.00185003632,0.00106422522,0.9991345,0.00107578,0.0004261331,6.87467e-06,0.00017468652,0,0
385,-0.01753649,0.0205136091,-1.0265702,-0.000354741729,-0.00319267553,0.00106422522,0.9991344,0.0010758293,0.0004261305,6.8752206e-06,0.00017469002,0,0
386,-0.01479732,0.0239277128,-1.0288763,-0.000118247233,-0.00248319213,0.00106422522,0.9991344,0.001075818,0.00042612926,6.875293e-06,0.00017468235,0,0
387,-0.0138842622,0.0236009043,-1.026878,0.00106422522,-0.00260143937,0.00105573179,0.9991344,0.0010758829,0.00042612152,6.8758764e-06,0.00017469485,0,0
388,-0.0119523061,0.0210505631,-1.02800226,0.000354741729,-0.00264085527,0.00106422522,0.99913436,0.0010759276,0.00042614024,6.8767354e-06,0.00017471284,0,0
389,-0.01456353,0.0175962821,-1.02512181,0.00027597326,-0.00300873537,0.00106718868,0.9991343,0.0010760454,0.00042617013,6.8782965e-06,0.00017474483,0,0
390,-0.0160849784,0.01823522,-1.028068,0.00106422522,-0.00277662021,0.00106422522,0.99913424,0.0010761122,0.00042615892,6.878703e-06,0.00017475433,0,0
391,-0.0164293665,0.0252841357,-1.03409564,0.000354741729,-0.00198976533,-0.00212845043,0.9991344,0.0010759246,0.0004260074,6.8755944e-06,0.0001747195,0,0
392,-0.0168696847,0.0245413259,-1.033338,-0.0005912362,-0.00106422522,-0.00279465364,0.99913454,0.0010757517,0.00042583482,6.8725267e-06,0.00017468935,0,0
393,-0.0175047386,0.022015078,-1.03406191,-0.000906562258,-0.00160482607,-0.00106422522,0.9991346,0.0010756478,0.00042570292,6.8706854e-06,0.00017466722,0,0
394,-0.0180419441,0.021661276,-1.03267562,-0.00106422522,-0.00319267553,0.00106422522,0.99913466,0.0010756335,0.00042565182,6.870895e-06,0.00017466588,0,0
395,-0.01724445,0.0225199033,-1.029121,-0.00149811851,-0.00248319213,0.000354741729,0.9991346,0.0010756534,0.00042564573,6.8715044e-06,0.00017466539,0,0
396,-0.0160020571,0.0234571546,-1.02484369,-0.00212845043,-0.002956181,0.000118247241,0.99913454,0.0010757318,0.0004257013,6.8734507e-06,0.00017468218,0,0
397,-0.01314652,0.02263025,-1.02537107,-0.00112336944,-0.00240436057,-0.000293679885,0.9991345,0.0010758293,0.00042574838,6.8747813e-06,0.00017469202,0,0
398,-0.013171236,0.0213780534,-1.03108072,0.00106422522,-0.00186567882,-0.00106422522,0.9991345,0.0010758722,0.00042568776,6.8737913e-06,0.00017468003,0,0
399,-0.01529536,0.01949581,-1.0316819,0.00168826373,-0.00204086,-0.00106422522,0.9991345,0.0010759272,0.00042559783,6.872769e-06,0.0001746752,0,0
400,-0.016003402,0.02114704,-1.02976644,0.00106422522,-0.00245399517,-0.000354741729,0.9991345,0.0010759911,0.00042555245,6.8729137e-06,0.00017467952,0,0
401,-0.0190063417,0.02153469,-1.02815139,-0.00106422522,-0.002591707,0.000388889661,0.9991344,0.0010760317,0.00042559052,6.874342e-06,0.00017469501,0,0
402,-0.0183797181,0.01905974,-1.0274502,-0.0009263817,-0.00192812749,0.00106422522,0.99913436,0.0010761409,0.0004256709,6.8760733e-06,0.00017471168,0,0
403,-0.0131252706,0.0214899648,-1.02982056,0.00106422522,-0.00135219272,0.00123797264,0.9991343,0.0010762372,0.00042572038,6.8767617e-06,0.00017471485,0,0
404,-0.0116993086,0.0249042064,-1.0312618,-0.00212845043,-0.00186969771,0.00106422522,0.99913436,0.0010761593,0.0004258269,6.8780537e-06,0.00017473169,0,0
405,-0.01203779,0.02343812,-1.03044021,-0.000709483458,-0.00239694118,0.000354741729,0.9991343,0.0010761316,0.00042585636,6.878316e-06,0.00017474683,0,0
406,-0.0119878575,0.02490255,-1.03423536,-0.000236494481,-0.00221794727,0.000397486,0.9991344,0.0010760168,0.00042583543,6.877332e-06,0.00017473983,0,0
407,-0.0111574112,0.02718106,-1.03826725,-7.88314937e-05,-0.001803541,0.00106422522,0.99913454,0.0010758335,0.0004257933,6.8756995e-06,0.00017472218,0,0
408,-0.01267096,0.0261501968,-1.03391457,-2.62771646e-05,-0.0020201474,-0.00106422522,0.9991346,0.0010756929,0.0004256948,6.873739e-06,0.00017471185,0,0
409,-0.0149658406,0.0267831385,-1.03099883,0.000375628064,-0.00280183274,-0.00103876716,0.99913466,0.001075613,0.00042558767,6.872409e-06,0.00017469918,0,0
410,-0.0175211653,0.0261803176,-1.03018963,0.00106422522,-0.002352911,0.00106422522,0.99913466,0.0010756232,0.00042555144,6.872409e-06,0.00017468969,0,0
411,-0.0177218989,0.0261421371,-1.0307337,0.00106422522,-0.00184852874,0.00209802622,0.99913466,0.0010756663,0.0004255828,6.873129e-06,0.00017468518,0,0
412,-0.0159984455,0.0275942534,-1.033031,-0.00113802624,-0.002035143,0.00212845043,0.9991347,0.0010756186,0.00042567658,6.874191e-06,0.00017468585,0,0
413,-0.0162377637,0.025799647,-1.03526163,-0.00212845043,-0.00245208968,0.00106422522,0.9991348,0.0010755218,0.00042573438,6.874257e-06,0.00017468535,0,0
414,-0.01761962,0.0224345177,-1.03356373,0.00106422522,-0.00259107188,0.000720702461,0.9991348,0.0010755596,0.0004256954,6.873398e-06,0.00017468019,0,0
415,-0.0211726855,0.02603286,-1.03674126,0.00106422522,-0.00192791584,0.00106422522,0.9991349,0.0010754848,0.00042563683,6.8717663e-06,0.00017465172,0,0
416,-0.0221942812,0.0282088686,-1.04024184,0.00106422522,-0.00206160545,-0.00106422522,0.9991351,0.0010753112,0.00042547472,6.8681043e-06,0.00017460494,0,0
417,-0.0191168431,0.02274931,-1.03441,0.000354741729,-0.00246091024,-0.00101684046,0.9991351,0.0010753056,0.00042536866,6.866663e-06,0.00017459362,0,0
418,-0.01809103,0.0246729478,-1.02742052,0.000118247241,-0.00212845043,0.00106422522,0.99913496,0.0010754311,0.0004253918,6.8681825e-06,0.0001746016,0,0
419,-0.0184001345,0.0287321284,-1.0293225,3.94157469e-05,-0.000709483458,0.000354741729,0.99913496,0.0010754598,0.00042541572,6.8685495e-06,0.00017458595,0,0
420,-0.0191542115,0.0247140955,-1.03386271,0.000394185015,-0.000406679581,0.000118247241,0.99913496,0.0010754798,0.0004254137,6.8679733e-06,0.00017456913,0,0
421,-0.0171269253,0.0225609485,-1.034074,0.00106422522,-0.00106422522,3.94157469e-05,0.9991349,0.0010755504,0.0004253967,6.8675145e-06,0.0001745618,0,0
422,-0.0148235587,0.02493568,-1.02974987,0.000354741729,-0.00141896692,-0.000402216217,0.99913484,0.0010756253,0.0004254139,6.8681043e-06,0.00017456729,0,0
423,-0.0153578529,0.02654106,-1.023914,0.000118247233,-0.00224669767,-0.00106422522,0.9991347,0.0010757461,0.00042544983,6.8697286e-06,0.00017458895,0,0
424,-0.0145593882,0.02430926,-1.02506113,-0.00106422522,-0.002522608,0.00212845043,0.99913454,0.0010758969,0.0004256279,6.8735553e-06,0.00017462824,0,0
425,-0.0131539106,0.0204728786,-1.0262574,-0.000354741729,-0.00155035278,0.000709483458,0.9991344,0.001076047,0.00042576503,6.875758e-06,0.00017465823,0,0
426,-0.0130109387,0.022612052,-1.02714443,0.000509489444,-0.00158100948,0.000465505116,0.99913436,0.0010761531,0.00042585636,6.8771815e-06,0.00017467936,0,0
427,-0.0154046873,0.02316235,-1.024836,0.00106422522,-0.00159122841,0.00212845043,0.99913424,0.0010763009,0.0004259932,6.8797594e-06,0.00017471518,0,0
428,-0.0162026044,0.0222064611,-1.02699614,0.000354741729,-0.00123989291,-0.00106422522,0.99913424,0.001076308,0.00042603,6.879628e-06,0.00017472368,0,0
429,-0.0148409726,0.0253058,-1.03113413,-0.00023649451,-0.00147752278,-0.00226246,0.9991343,0.0010761819,0.0004259745,6.8777586e-06,0.00017470801,0,0
430,-0.0153636569,0.0287803188,-1.03739631,-0.00212845043,-0.00155673281,-0.00106422522,0.9991345,0.001075901,0.00042591017,6.87547e-06,0.00017468086,0,0
431,-0.01765377,0.0287991688,-1.04192507,-0.000709483458,-0.00106422522,0.00106422522,0.9991347,0.0010756518,0.0004258135,6.872625e-06,0.00017464523,0,0
432,-0.0195564646,0.0257130042,-1.03838909,-0.0006031533,-0.000354741729,0.00212845043,0.9991348,0.0010755259,0.00042577763,6.87117e-06,0.00017462541,0,0
433,-0.020353457,0.0256608445,-1.037536,-0.00212845043,-0.00121056219,0.000709483458,0.9991349,0.0010753629,0.00042574495,6.869611e-06,0.00017459993,0,0
434,-0.0211074036,0.0271083023,-1.03513575,-0.000709483458,-0.00319267553,0.00031766342,0.99913496,0.0010752851,0.0004256632,6.868261e-06,0.00017457896,0,0
435,-0.01826627,0.0256376639,-1.03433561,-0.00130071968,-0.00212845043,0.00106422522,0.99913496,0.0010752446,0.00042565708,6.867947e-06,0.00017456297,0,0
436,-0.015203339,0.0233570859,-1.03439438,-0.00149779848,-0.00123032369,0.00130924024,0.99913496,0.0010752471,0.000425692,6.8681497e-06,0.00017455581,0,0
437,-0.0187396538,0.0201554876,-1.03376293,-0.00106422522,-0.00106422522,0.00106422522,0.99913496,0.0010752913,0.00042571125,6.8682875e-06,0.00017455181,0,0
438,-0.02154603,0.0202276111,-1.02997172,-0.000142676508,-0.00141896692,-0.000354741729,0.99913484,0.0010753936,0.00042568837,6.8681957e-06,0.00017454586,0,0
439,-0.0171103943,0.0267620683,-1.03098667,0.00106422522,-0.00153721415,-0.000118247233,0.99913484,0.0010754598,0.00042565606,6.8679337e-06,0.00017452803,0,0
440,-0.0169339329,0.0263360534,-1.0373472,0.00106422522,-0.00106422522,0.00106422522,0.9991349,0.0010754399,0.0004256279,6.86722e-06,0.00017451272,0,0
441,-0.0202930812,0.0226133186,-1.03279412,0.000190532228,-0.00011971299,0.000617658952,0.99913484,0.0010755033,0.00042563397,6.8673967e-06,0.00017451771,0,0
442,-0.0153906615,0.0230000112,-1.02802122,-0.00106422522,0.00106422522,-0.00106422522,0.9991347,0.0010755822,0.0004256774,6.8678423e-06,0.00017451639,0,0
443,-0.0113151157,0.0247565135,-1.02659309,-0.00180206413,-0.00106422522,-0.00106422522,0.99913466,0.0010756514,0.00042574148,6.8693685e-06,0.0001745327,0,0
444,-0.0112586841,0.02290061,-1.02660525,-0.00212845043,-0.00185627025,-0.000146125356,0.99913454,0.0010757318,0.00042583665,6.8715567e-06,0.00017456031,0,0
445,-0.0118909152,0.020654371,-1.0254699,-0.0007094836,-0.00106422522,0.00106422522,0.99913436,0.0010758999,0.00042595706,6.874106e-06,0.0001745906,0,0
446,-0.0151941068,0.02202151,-1.02997434,-0.000236494525,-0.00212845043,0.0006079719,0.99913436,0.0010759593,0.00042601596,6.875227e-06,0.00017460692,0,0
447,-0.02020142,0.0229655039,-1.03538215,-0.00106422522,-0.00354741723,-0.00106422522,0.9991344,0.0010758588,0.00042596375,6.8741715e-06,0.00017460494,0,0
448,-0.0186153185,0.0227918867,-1.033604,-0.00134582119,-0.00331092277,-0.000354741729,0.9991345,0.0010758195,0.00042593267,6.8738636e-06,0.00017461092,0,0
449,-0.0166217741,0.0206181277,-1.03024435,-0.00106422522,-0.00216786633,-0.00106422522,0.9991345,0.00107584,0.00042589736,6.873621e-06,0.00017461808,0,0
450,-0.0177476238,0.0169638544,-1.026032,-0.000354741729,-0.00212845043,-0.000354741729,0.99913436,0.0010759829,0.00042589413,6.8746504e-06,0.00017463857,0,0
451,-0.0150304586,0.0170478467,-1.021861,-0.000118247241,-0.002597374,-0.000291823817,0.99913424,0.0010761896,0.00042593878,6.8768272e-06,0.00017466888,0,0
452,-0.0141247362,0.0208193343,-1.0227493,-3.94157469e-05,-0.00319267553,-0.00106422522,0.9991341,0.00107631,0.00042595787,6.8783684e-06,0.00017469101,0,0
453,-0.0156131936,0.0248434246,-1.03183448,0.000388143,-0.00212845043,0.000354741729,0.99913424,0.00107627,0.00042594364,6.878198e-06,0.00017468551,0,0
454,-0.0139934607,0.0286261942,-1.03453732,0.00106422522,-0.00212845043,0.0008277307,0.9991343,0.0010761911,0.0004259041,6.877542e-06,0.00017468585,0,0
455,-0.013290789,0.03167748,-1.03267133,0.000354741729,-0.00248319213,0.00106422522,0.99913436,0.0010760849,0.00042589087,6.877529e-06,0.00017469852,0,0
456,-0.0141958883,0.0318807773,-1.03107274,-0.000454800145,-0.002956181,0.00153190212,0.9991344,0.0010759819,0.00042591465,6.8781324e-06,0.00017471751,0,0
457,-0.0151486294,0.0293443743,-1.02826118,-0.00106422522,-0.00240436057,0.00212845043,0.9991344,0.0010759436,0.00042599806,6.8795625e-06,0.00017474084,0,0
458,-0.0180703755,0.0280106235,-1.0256964,-0.00160784158,-0.00186567882,0.000709483458,0.9991345,0.0010759091,0.0004260744,6.8803956e-06,0.000174753,0,0
459,-0.0169284064,0.0251246337,-1.02842224,-0.00212845043,-0.00168611808,-0.000459448842,0.9991345,0.0010758335,0.0004261167,6.879989e-06,0.0001747455,0,0
460,-0.016384989,0.0222095121,-1.03209782,-0.000709483458,-0.00127152272,-0.00106422522,0.99913454,0.0010757579,0.00042606748,6.877916e-06,0.0001747195,0,0
461,-0.0175059345,0.022865409,-1.03381121,-0.0003333828,-0.00219754968,0.000709483458,0.9991346,0.001075696,0.0004260298,6.8767417e-06,0.00017470217,0,0
462,-0.0144616142,0.0247116461,-1.03389406,-0.00106422522,-0.002860967,0.00106422522,0.99913466,0.001075613,0.00042602266,6.8762306e-06,0.00017469401,0,0
463,-0.01344684,0.0259781014,-1.02968991,-0.00130375545,-0.00201788079,0.000354741729,0.99913466,0.0010755679,0.00042602816,6.8761387e-06,0.00017469251,0,0
464,-0.0134341037,0.0244471282,-1.02991617,-0.00106422522,-0.00138211029,-0.0003912033,0.99913466,0.001075528,0.00042600944,6.875483e-06,0.00017468269,0,0
465,-0.0153829828,0.0211698767,-1.036502,-0.000354741729,-0.00152492861,-0.00106422522,0.9991348,0.0010754266,0.00042589716,6.8728873e-06,0.00017465056,0,0
466,-0.0179857332,0.019100897,-1.03674412,0.00038209575,-0.002282018,-0.00106422522,0.99913484,0.0010753829,0.0004257427,6.870397e-06,0.00017462391,0,0
467,-0.01641191,0.0184112359,-1.03210485,0.00106422522,-0.00253438135,-0.000354741729,0.9991348,0.0010754685,0.00042563683,6.869624e-06,0.00017461492,0,0
468,-0.0132831363,0.0217620786,-1.03137219,0.000454611261,-0.002263761,0.000392073271,0.9991347,0.0010755316,0.00042560088,6.8699646e-06,0.00017461108,0,0
469,-0.0114264106,0.024669392,-1.02640784,-0.00106422522,-0.002173554,0.00106422522,0.9991346,0.0010756315,0.00042568025,6.8725203e-06,0.00017463723,0,0
470,-0.0134116681,0.0238481313,-1.0271945,0.000354741729,-0.00214348477,0.000354741729,0.99913454,0.0010757426,0.00042571023,6.8738964e-06,0.00017465389,0,0
471,-0.0174913891,0.0227605756,-1.03185129,0.000118247233,-0.00213346188,-0.00106422522,0.9991346,0.0010757421,0.00042566643,6.87328e-06,0.00017464857,0,0
472,-0.0204789,0.0225608181,-1.02640486,-0.00106422522,-0.00248486269,-0.00145957293,0.99913454,0.0010758108,0.00042566075,6.874001e-06,0.0001746604,0,0
473,-0.0201726537,0.0229825135,-1.02751911,-0.000354741729,-0.00319267553,-0.00106422522,0.9991345,0.0010758907,0.0004256445,6.874473e-06,0.00017466322,0,0
474,-0.0160015617,0.0223092753,-1.02886713,-0.0006859228,-0.00106422522,-0.000354741729,0.9991345,0.0010759572,0.00042568106,6.8749714e-06,0.00017466072,0,0
475,-0.0123325512,0.0211083,-1.02459633,-0.00212845043,-0.000696320843,-0.000418203766,0.99913436,0.001076066,0.0004257967,6.877024e-06,0.00017468518,0,0
476,-0.0130626736,0.0215217769,-1.028381,-0.00137581327,-0.00212845043,-0.00106422522,0.9991343,0.0010760926,0.0004258271,6.877496e-06,0.00017469336,0,0
477,-0.0147708915,0.0187299158,-1.03566468,0.00106422522,-0.00319267553,0.00212845043,0.99913436,0.0010761394,0.00042583077,6.877634e-06,0.00017470002,0,0
478,-0.0146892555,0.0189386178,-1.04085958,0.00177634531,-0.00303146988,0.00284703681,0.9991344,0.0010761075,0.00042580604,6.8768077e-06,0.00017469985,0,0
479,-0.0144992834,0.0235654768,-1.04226577,0.00106422522,-0.00212845043,0.00106422522,0.99913454,0.0010759344,0.00042571552,6.8743684e-06,0.00017468235,0,0
480,-0.0154125215,0.0267353673,-1.03671229,0.000815755629,-0.00177370862,0.00141896692,0.99913466,0.0010758211,0.00042565222,6.873267e-06,0.00017467952,0,0
481,-0.0137638086,0.0284430385,-1.02688587,0.00106422522,-0.00165546138,0.00106422522,0.9991346,0.0010758486,0.00042565344,6.8740537e-06,0.00017469519,0,0
482,-0.0107728317,0.02347841,-1.02572632,0.000354741729,-0.00212845043,0.00165938435,0.9991345,0.0010759308,0.00042573782,6.876099e-06,0.00017472284,0,0
483,-0.01010136,0.0213352516,-1.03022254,-0.0004277196,-0.000709483458,0.00319267553,0.9991345,0.0010759649,0.00042588558,6.8780273e-06,0.00017473767,0,0
484,-0.010203057,0.0253409166,-1.03172123,-0.00106422522,-0.00111136062,0.000354741671,0.9991345,0.001075865,0.00042593916,6.8778963e-06,0.00017473749,0,0
485,-0.0117018,0.024071971,-1.03222084,-0.000354741729,-0.00319267553,-0.0005912362,0.9991345,0.0010757738,0.00042590307,6.87707e-06,0.00017474084,0,0
486,-0.0126896622,0.0247883126,-1.03759575,-0.000338316866,-0.00212845043,-0.000197078756,0.99913466,0.0010755894,0.00042582364,6.8748272e-06,0.00017471284,0,0
487,-0.01725072,0.0229112078,-1.04215431,-0.00106422522,-0.00248319213,-6.569291e-05,0.99913484,0.0010753563,0.00042570068,6.8719305e-06,0.00017468052,0,0
488,-0.0203986783,0.0221227463,-1.03830278,0.00106422522,-0.00224669767,-2.18976438e-05,0.9991349,0.001075283,0.0004255352,6.8691916e-06,0.00017464756,0,0
489,-0.0139610171,0.0260916967,-1.03571689,0.00183003093,-0.00216786633,0.000702184334,0.99913496,0.0010752687,0.00042542952,6.8678423e-06,0.00017462092,0,0
490,-0.0108385682,0.02367119,-1.03566873,0.00106422522,-0.002141589,-0.000120680314,0.99913496,0.0010752452,0.00042534596,6.8668464e-06,0.00017460859,0,0
491,-0.0110998349,0.0231898744,-1.03435051,-0.000354741729,-0.00213283,-0.00212845043,0.999135,0.0010751868,0.0004252349,6.8654977e-06,0.00017459478,0,0
492,-0.0113496846,0.0249825623,-1.03228343,-0.000118247233,-0.00283939368,-0.000709483458,0.99913496,0.0010752094,0.00042517044,6.8657464e-06,0.00017459261,0,0
493,-0.0135488538,0.0223249178,-1.03533792,0.000670067733,-0.00236543152,-0.000236494481,0.99913496,0.0010752402,0.00042510417,6.865465e-06,0.00017458378,0,0
494,-0.0129798269,0.0211135149,-1.03749549,0.0002233559,-0.00149796065,0.000233102342,0.999135,0.0010752666,0.00042507684,6.8653276e-06,0.00017457362,0,0
495,-0.0105115054,0.0241276827,-1.028449,-0.00106422522,-0.002273029,0.00106422522,0.99913484,0.0010754121,0.00042518709,6.86853e-06,0.00017460741,0,0
496,-0.0124556581,0.0220399573,-1.01973689,-0.0006507914,-0.00288612675,0.000354741729,0.9991346,0.0010756898,0.00042534675,6.8730315e-06,0.0001746619,0,0
497,-0.0155451149,0.016786756,-1.02594745,0.00106422522,-0.00212845043,0.000118247241,0.9991345,0.001075924,0.00042544294,6.8751356e-06,0.00017468186,0,0
498,-0.0169004556,0.0160122514,-1.02883148,-0.000354741729,-0.001452542,0.0008616827,0.9991344,0.0010760885,0.00042558525,6.877411e-06,0.00017470318,0,0
499,-0.0145853087,0.0229155421,-1.02507269,-0.0008277307,-0.00106422522,0.00212845043,0.9991343,0.0010762525,0.0004258044,6.881006e-06,0.00017473652,0,0
500,-0.0139763532,0.0240773167,-1.03098118,-0.00106422522,-0.00212845043,0.00208990532,0.99913424,0.0010762638,0.00042597734,6.882975e-06,0.00017476184,0,0
501,-0.0180051383,0.0208838452,-1.038159,-0.00153703871,-0.000709483458,0.00106422522,0.99913436,0.0010761234,0.00042604114,6.88182e-06,0.00017475383,0,0
502,-0.0188597869,0.0238883644,-1.03729641,-0.00212845043,-0.000236494481,0.00106422522,0.9991345,0.0010759583,0.0004260797,6.8804156e-06,0.00017473717,0,0
503,-0.0181681067,0.0274940375,-1.03163779,-0.00106422522,-0.00171693671,0.00114768068,0.9991345,0.0010758763,0.00042610246,6.879917e-06,0.00017473352,0,0
504,-0.0177747849,0.0275566056,-1.0312165,0.000354741729,-0.004256901,0.00106422522,0.99913454,0.0010758201,0.000426074,6.8793656e-06,0.00017473468,0,0
505,-0.01829472,0.0248105358,-1.03058779,-0.00023649451,-0.00106422522,0.00106422522,0.9991346,0.0010757707,0.00042608374,6.878552e-06,0.00017471968,0,0
506,-0.0184680317,0.02454622,-1.02533257,-0.00114305678,0.000971333764,0.000354741729,0.99913454,0.0010757928,0.00042614693,6.8786244e-06,0.00017470968,0,0
507,-0.0160843953,0.02250499,-1.02260435,-0.000381018937,0.00106422522,0.0003791514,0.9991344,0.0010759102,0.00042623427,6.8793656e-06,0.00017470568,0,0
508,-0.0134994863,0.0226383824,-1.02527571,-0.000481748051,-0.00106422522,0.00106422522,0.9991343,0.001075988,0.0004263324,6.880527e-06,0.00017471134,0,0
509,-0.0147537356,0.0212180018,-1.028282,-0.00157954963,-0.000354741729,-0.00106422522,0.9991343,0.0010759431,0.00042635805,6.8796676e-06,0.00017469884,0,0
510,-0.0176132247,0.01993074,-1.02684271,-0.0008812582,-0.000982078,-0.00182621321,0.99913424,0.0010759532,0.0004263145,6.8784866e-06,0.00017468768,0,0
511,-0.0154739395,0.0208037365,-1.02587461,0.000770472456,-0.00319267553,-0.00106422522,0.9991342,0.0010760343,0.00042624606,6.8780864e-06,0.00017468802,0,0
512,-0.0157374069,0.020280933,-1.0278306,0.00212845043,-0.00212845043,0.000354741729,0.9991342,0.0010761275,0.0004261865,6.8776535e-06,0.00017468401,0,0
513,-0.0172900725,0.0204321872,-1.02815711,0.0004908934,-0.0007094836,0.000118247233,0.9991342,0.0010761602,0.00042616788,6.877437e-06,0.00017468153,0,0
514,-0.0163427833,0.0193432812,-1.02875423,-0.00319267553,-0.0005912362,-0.00106422522,0.9991342,0.0010760977,0.00042619547,6.8774502e-06,0.00017468251,0,0
515,-0.0152132185,0.0193058327,-1.02813947,-0.00106422522,-0.00161604572,-0.001406861,0.9991342,0.0010761173,0.00042613575,6.8766963e-06,0.00017467851,0,0
516,-0.0136973746,0.01945611,-1.02891111,-0.000354741729,-0.00231239037,-0.00106422522,0.9991341,0.0010761286,0.0004260618,6.8760205e-06,0.00017467602,0,0
517,-0.018400427,0.0230869334,-1.03079593,-0.0006460906,-0.00218976359,0.00106422522,0.9991342,0.0010760977,0.00042603543,6.8761187e-06,0.00017467252,0,0
518,0.2254746,0.0999808,-1.11801279,-0.00106422522,-0.030528225,-0.0776205,0.9991357,0.0010728295,0.0004230306,6.819806e-06,0.00017425582,0,0
519,0.199507162,0.109661572,-1.119253,-0.590645,-0.0619683675,-0.213909253,0.9991401,0.0010535647,0.00042912626,6.8703052e-06,0.00017493838,0,0
520,-0.07037912,0.00465281541,-0.957557,-0.8531539,0.0304266866,-0.6910369,0.99914485,0.001031058,0.00042627938,6.7158617e-06,0.00017295704,0,0
521,-0.08856388,-0.202713385,-0.955253363,-0.462464958,0.299966216,-0.100155413,0.9991442,0.001031912,0.00042981262,6.684112e-06,0.00016963012,0,0
522,0.0209344327,-0.3291271,-1.094785,-0.624542534,0.5859849,0.05352659,0.99913836,0.0010311671,0.00045231005,6.8188497e-06,0.00016731881,0,0
523,0.188456014,-0.2963952,-1.12485671,-1.675038,1.05841494,-0.359248251,0.99912274,0.0010162939,0.00051093544,7.192007e-06,0.00016660051,0,0
524,0.213046536,-0.287926,-1.10818791,-2.74958539,1.72920287,-1.1584332,0.99908376,0.0010048341,0.0006020092,7.704914e-06,0.00016664056,0,0
525,0.146699116,-0.377876371,-1.12623191,-3.79241967,2.29512477,-1.837038,0.9989656,0.0010144067,0.0007629338,8.843133e-06,0.00017463074,0,0
526,0.0409244448,-0.6337713,-0.9432817,-5.234764,3.177995,-1.83833349,0.9987254,0.0010454864,0.0010789267,1.1275994e-05,0.00019665537,0,0
527,-0.035023883,-0.5286399,-0.852024853,-6.979845,4.501745,-1.204487,0.9983792,0.0011249477,0.0015606486,1.5074536e-05,0.00023396825,0,0
528,-0.09614728,0.0575106554,-1.31932724,-7.46611261,5.01961946,-0.425263315,0.9979828,0.0012531094,0.0020260832,1.8902709e-05,0.00028192706,0,0
529,-0.0289566424,0.127080381,-1.46467817,-4.95628738,4.62182,0.6755705,0.997658,0.0013905102,0.002306299,1.9673602e-05,0.00030958612,0,0
530,0.166780069,-0.274697155,-1.01719749,-1.56305563,4.1845336,0.384114385,0.997659,0.0014205554,0.0021314442,1.5447531e-05,0.00028910022,0,0
531,0.330170184,-0.48300454,-0.884801567,0.3268142,2.67708921,-1.25155246,0.9980051,0.0013360325,0.0014272613,9.597613e-06,0.00022598857,0,0
532,0.386098385,-0.5569976,-1.08204329,1.12172568,0.384185284,-2.15329,0.99844223,0.0012492941,0.00068876555,5.403517e-06,0.00016457275,0,0
533,0.4167854,-0.565711439,-1.35384512,1.44308937,1.15894127,-2.30523276,0.9986621,0.0012179943,0.00047530443,4.2139427e-06,0.0001411134,0,0
534,0.413993567,-0.551526248,-1.55382073,0.1344688,1.41648376,-1.94721758,0.9987494,0.0011850547,0.00039975674,3.968193e-06,0.00013811495,0,0
535,0.349911928,-0.556075156,-1.52607822,-2.27424932,1.51652086,-1.23829854,0.99870425,0.0011466236,0.00039005541,4.3051273e-06,0.00014542388,0,0
536,0.384866476,-0.630345345,-1.41298962,-4.007872,1.72546387,-0.617452145,0.9984901,0.001110463,0.00046374733,5.4287025e-06,0.00016807676,0,0
537,0.402051836,-0.740063,-1.45553434,-6.2328124,2.36056972,-0.5445957,0.9980325,0.0010276356,0.000708573,8.312011e-06,0.00023059972,0,0
538,0.3296553,-0.8676186,-1.49152577,-9.526471,2.90856671,-1.18757951,0.9972294,0.00087516493,0.0013169842,1.3847787e-05,0.00038183885,0,0
539,0.2316299,-0.869284332,-1.32562578,-13.5829039,2.38245845,-2.65450025,0.9960538,0.00076569756,0.002277297,2.1159065e-05,0.000634957,0,0
540,0.111064136,-0.685432,-0.9780081,-17.7938442,0.772868335,-3.73731136,0.99441457,0.0007562949,0.0033430625,2.8440103e-05,0.0009400979,0,0
541,0.08145497,-0.446739048,-0.4171485,-19.4329624,-0.8818076,-3.129449,0.9920994,0.00083808484,0.004688169,3.610325e-05,0.0013224052,0,0
542,0.0935579,-0.3492711,-0.145722672,-19.2465115,-0.9945507,-1.12403071,0.9897445,0.0010237648,0.006530355,4.5861154e-05,0.0017236129,0,0
543,0.101335704,-0.4683117,-0.176666677,-15.290432,-0.3027828,0.7761052,0.98837477,0.0012194174,0.0086041875,5.8251422e-05,0.0019582894,0,0
544,0.1779843,-0.5550297,-0.08541884,-13.3062439,-0.152010411,1.79899025,0.98764926,0.001347384,0.010153552,6.6533044e-05,0.0020050388,0,0
545,0.223065078,-0.541129649,-0.0263570622,-12.760849,-0.0407373719,2.77174687,0.98700476,0.0014531901,0.011065537,7.114331e-05,0.0019790153,0,0
546,0.215142787,-0.5617242,0.035973426,-12.6287146,-0.07530419,3.55042338,0.9863898,0.001566193,0.011167258,7.252073e-05,0.0019214337,0,0
547,0.244403064,-0.564845562,0.135038018,-12.1391134,-0.229432628,3.72165179,0.98607856,0.0016903274,0.010221315,6.9010326e-05,0.0018184859,0,0
548,0.310959876,-0.4972011,0.227629855,-10.8513823,-0.24533461,3.52083015,0.9861691,0.0018151203,0.008772937,6.298764e-05,0.0017007029,0,0
549,0.388646752,-0.4222441,0.338734716,-9.06596,-0.225448608,3.193864,0.98633707,0.0019235637,0.00767614,5.8437592e-05,0.0016346868,0,0
550,0.421866626,-0.3896087,0.414506644,-7.55487633,-0.0907581747,2.87735176,0.9864557,0.002001337,0.007394749,5.7175377e-05,0.001638046,0,0
551,0.408525854,-0.383287549,0.4744319,-6.85500956,0.08042669,2.64804268,0.98649466,0.0020422507,0.008054623,6.0379367e-05,0.00172444,0,0
552,0.384547681,-0.373368,0.514263749,-6.757587,0.140680984,2.49746513,0.98645777,0.0020553207,0.009445319,6.769036e-05,0.0018993793,0,0
553,0.396086216,-0.310165644,0.5573262,-6.545259,0.0163858738,2.158158,0.98643565,0.002064563,0.010979955,7.692353e-05,0.0021349539,0,0
554,0.419463634,-0.2191112,0.5611009,-5.817856,-0.165168822,1.62255847,0.9866046,0.0020808538,0.012011474,8.666602e-05,0.0024067552,0,0
555,0.41260767,-0.145139933,0.5109269,-4.89925051,-0.268256068,1.19606078,0.9870287,0.0020978185,0.012228644,9.721519e-05,0.0027149261,0,0
556,0.449059337,-0.0749099255,0.515523851,-4.162392,-0.2100309,0.945698738,0.9876199,0.0021030046,0.011804735,0.00010805934,0.0030398562,0,0
557,0.519803643,-0.0212264862,0.585252762,-3.4893086,0.101329945,0.6327268,0.9884258,0.0020599558,0.011016143,0.00011479679,0.0032759083,0,0
558,0.508391559,-0.00642445358,0.6561845,-2.66933632,0.394548982,-0.06827281,0.98972815,0.0018752981,0.009487671,0.00010820112,0.0032345762,0,0
559,0.42239356,-0.045761276,0.6690862,-1.84509814,0.310660928,-0.9156425,0.9917593,0.001490896,0.006619738,8.110256e-05,0.0027699524,0,0
560,0.336435884,-0.103795432,0.599493563,-1.09854567,-0.200460017,-1.46983111,0.99408394,0.0010817457,0.0035562078,4.503347e-05,0.0019517435,0,0
561,0.2827182,-0.161226079,0.542279065,-0.266144723,-0.945515335,-1.62972891,0.9959719,0.0008108118,0.0016947098,2.0979936e-05,0.0011951,0,0
562,0.302084446,-0.22496599,0.629001856,0.667594433,-1.37159264,-1.58440983,0.99713504,0.0006643027,0.00091309426,1.1092649e-05,0.00078740186,0,0
563,0.5110138,-0.368445724,1.07066989,1.497828,-0.8083918,-1.708717,0.9977395,0.0005899787,0.00059748086,7.3102674e-06,0.000597993,0,0
564,0.7888275,-0.604260564,1.58768427,2.0874548,0.412704378,-1.86260593,0.99806136,0.00055885455,0.00044796258,5.4174848e-06,0.00047070216,0,0
565,0.846926868,-0.6885621,1.56926715,2.51032233,0.152112529,-2.010392,0.9981886,0.0005498383,0.00040703014,4.798132e-06,0.0004085612,0,0
566,0.679607153,-0.539416552,1.07842767,2.46255565,-1.34910667,-2.3512516,0.9981233,0.0005574145,0.00043383616,5.153178e-06,0.00041899856,0,0
567,0.488905519,-0.374467,0.611754537,1.95070446,-1.81013668,-2.55568528,0.99790585,0.0005718253,0.0004994863,5.8351197e-06,0.00046642552,0,0
568,0.463912517,-0.311834067,0.4485471,1.61371338,-1.06383359,-2.467034,0.99775124,0.0005915573,0.00053061504,5.951716e-06,0.00048824374,0,0
569,0.344741672,-0.38177672,0.325948,1.30237281,0.335361451,-2.25408244,0.9977987,0.0006298904,0.00045844138,5.003738e-06,0.00040805034,0,0
570,0.191899583,-0.5986131,0.254157156,0.286196947,1.1518898,-1.55662453,0.9979093,0.00069260737,0.00033071946,3.832967e-06,0.00028521812,0,0
571,0.2996436,-0.680331945,0.4768089,-0.258633226,0.442140818,-0.985005558,0.9980091,0.00076793105,0.00025512025,3.340345e-06,0.00021605383,0,0
572,0.46625492,-0.548717439,0.7611499,0.162462875,-0.219067931,-0.493999571,0.99816775,0.0009091015,0.00020967229,3.2775122e-06,0.00017733173,0,0
573,0.519676149,-0.457645416,0.868625462,0.443305969,-0.07195842,0.228742063,0.9983037,0.0011170646,0.00019157941,3.5697865e-06,0.00015405357,0,0
574,0.526741,-0.4217542,0.824698031,0.4978988,-0.161625937,0.369264036,0.99833685,0.0013231542,0.00020711604,4.3070618e-06,0.00014844943,0,0
575,0.536420166,-0.3796798,0.730954,0.32063368,-0.463956743,0.209644973,0.998273,0.0015157928,0.00025309,5.4962884e-06,0.00015540441,0,0
576,0.5139304,-0.351494819,0.6769195,-0.0172817111,-0.55692935,0.120254986,0.9981492,0.0017115625,0.0003300476,7.175544e-06,0.0001700849,0,0
577,0.47713694,-0.35560894,0.6740448,-0.4208084,-0.449216217,-0.05995217,0.9980236,0.0018885775,0.00042612417,9.127158e-06,0.00018869416,0,0
578,0.475451916,-0.365443856,0.703197241,-0.8802607,-0.4001864,-0.482922,0.9979382,0.0020058528,0.0005077167,1.0713212e-05,0.00020720689,0,0
579,0.528275669,-0.386788577,0.7269121,-1.1859504,-0.4423755,-1.00596881,0.997897,0.0020568136,0.0005288054,1.1240136e-05,0.00022096676,0,0
580,0.603989065,-0.382998556,0.7439316,-1.18568134,-0.312413424,-1.439634,0.9979142,0.0020339484,0.00048235315,1.0521202e-05,0.00022227071,0,0
581,0.5818636,-0.370830268,0.765067041,-0.9369177,0.0934533253,-1.74807966,0.9980202,0.0019328671,0.00039780524,8.799942e-06,0.0002042528,0,0
582,0.4621837,-0.42064786,0.75665,-0.6581791,0.493024826,-1.89665663,0.9981409,0.0018352754,0.00031625625,6.9404396e-06,0.00017219795,0,0
583,0.382088572,-0.4673644,0.74147445,-0.6159943,0.525468647,-1.78016317,0.99819714,0.0017893312,0.0002637936,5.727642e-06,0.0001449486,0,0
584,0.281659722,-0.513535559,0.7284407,-0.8655059,0.301799,-1.391202,0.99818975,0.0017822896,0.0002397134,5.214324e-06,0.00013042038,0,0
585,0.2561587,-0.7237501,0.598282337,-1.00472558,0.07044662,-1.008972,0.9981673,0.0018042346,0.00023105109,5.071897e-06,0.00012413679,0,0
586,0.297951341,-0.797565162,0.588424861,-1.0326854,0.248743191,-0.310782582,0.99814343,0.0018603144,0.00024022382,5.3016124e-06,0.00012329615,0,0
587,0.3193692,-0.641831636,0.7399242,-1.15587759,0.437656134,0.520041764,0.9981079,0.0019574743,0.00027497724,6.129246e-06,0.00012773945,0,0
588,0.349294931,-0.5503697,0.7541284,-1.18204248,0.344895482,0.8498397,0.99805236,0.0020993424,0.00033518745,7.5672037e-06,0.000136233,0,0
589,0.3361582,-0.499700069,0.7191496,-1.19182837,0.29198128,0.9253624,0.9979916,0.0022403034,0.00042849817,9.634938e-06,0.00014965348,0,0
590,0.341707677,-0.462790638,0.7291371,-1.24156141,0.107969344,0.9604694,0.99796414,0.0022956796,0.00057628757,1.2384031e-05,0.00017275613,0,0
591,0.3658557,-0.44479087,0.7645301,-1.2059921,-0.09171724,0.980685532,0.99803036,0.0021683562,0.000840601,1.5460708e-05,0.00020871029,0,0
592,0.3665808,-0.444162041,0.7979749,-1.04656315,-0.22284244,0.9271181,0.9981579,0.0019476848,0.0012254601,1.814857e-05,0.0002530389,0,0
593,0.371705323,-0.4371165,0.8271895,-0.9008325,-0.3385634,0.894718,0.99822795,0.0018035193,0.001557625,2.0841362e-05,0.00030686706,0,0
594,0.407755941,-0.396844834,0.846367836,-0.885601342,-0.37181592,0.9342912,0.998212,0.0017439903,0.0017563007,2.4070705e-05,0.00037530763,0,0
595,0.459486365,-0.35461235,0.838763237,-0.8581756,-0.21120511,0.870858133,0.99816024,0.0017133616,0.0018143998,2.6705564e-05,0.00044431663,0,0
596,0.4570358,-0.345580429,0.7896789,-0.704299,0.044179868,0.6546058,0.9981069,0.0016738406,0.0017300508,2.7318627e-05,0.00048964337,0,0
597,0.4288752,-0.340779424,0.752646863,-0.5802848,0.182874188,0.5133471,0.99806195,0.0016158675,0.0015889687,2.6490368e-05,0.00050561194,0,0
598,0.448134184,-0.331366569,0.7725294,-0.4609035,0.180151284,0.450652152,0.99800134,0.0015640025,0.0014709579,2.56678e-05,0.0005054402,0,0
599,0.459111124,-0.330182076,0.795433,-0.209328935,0.119647026,0.3236861,0.9978953,0.0015446896,0.0013613844,2.4914312e-05,0.00049801584,0,0
600,0.455608636,-0.3336935,0.7944412,0.039129395,0.0349159576,0.21289891,0.9977556,0.0015633665,0.0012182369,2.3611834e-05,0.00048274503,0,0
601,0.458021879,-0.328028053,0.786949158,0.199992016,-0.04050838,0.138721958,0.99760145,0.0016176078,0.0010281511,2.1368414e-05,0.00045380005,0,0
602,0.462244272,-0.319303632,0.7820104,0.317111671,-0.07983949,0.05369023,0.9974416,0.0017070759,0.0008099249,1.8150839e-05,0.0004054501,0,0
603,0.467069715,-0.32355693,0.783782065,0.394463658,-0.0922403857,-0.036733482,0.99728036,0.0018358486,0.000599619,1.4325409e-05,0.00033681825,0,0
604,0.461516738,-0.337832779,0.7926734,0.4411774,-0.0970835,-0.14491789,0.9971275,0.001998575,0.00042296585,1.0433592e-05,0.00025730804,0,0
605,0.4425759,-0.354798436,0.796613753,0.466681451,-0.0827344954,-0.255120367,0.99703383,0.0021393602,0.00029799173,7.2435005e-06,0.00018927584,0,0
606,0.4230787,-0.375590354,0.7842553,0.427292675,-0.0626976,-0.29788515,0.99704254,0.0021894732,0.00022722397,5.2448167e-06,0.00014656105,0,0
607,0.417230636,-0.390007973,0.7744393,0.310933232,-0.06807985,-0.2578646,0.99710375,0.0021736948,0.00019493353,4.2433167e-06,0.00012414258,0,0
608,0.4160951,-0.399045616,0.779142559,0.225675568,-0.06987394,-0.209050253,0.99715775,0.0021534355,0.00018531937,3.8366134e-06,0.00011334154,0,0
609,0.4189718,-0.409382373,0.7821751,0.225280941,-0.04244737,-0.197390437,0.9971886,0.0021583573,0.00018939987,3.751189e-06,0.00010849237,0,0
610,0.4261156,-0.405178219,0.77163,0.228342071,-0.0226629246,-0.189246938,0.99718714,0.0022056943,0.00020430579,3.8876356e-06,0.00010707609,0,0
611,0.4296362,-0.391895324,0.7624183,0.185374483,-0.009682759,-0.164538443,0.9971362,0.0023130644,0.00023104514,4.2435718e-06,0.0001081707,0,0
612,0.4301587,-0.387630463,0.7601616,0.1561528,0.0102526,-0.151690632,0.99702674,0.0024873246,0.00027155873,4.826052e-06,0.000111214234,0,0
613,0.423334152,-0.395160675,0.765919745,0.139317408,0.0147692682,-0.128961459,0.9968441,0.0027355005,0.00032895603,5.687987e-06,0.00011648412,0,0
614,0.41699028,-0.405483246,0.7719081,0.08936288,-0.00962132,-0.0568220764,0.99655575,0.0030775417,0.0004095417,6.997796e-06,0.00012559559,0,0
615,0.424641281,-0.4064827,0.766417265,0.0258854683,-0.0301674753,0.0239830557,0.99613273,0.0035211858,0.00051956135,8.968619e-06,0.00014073901,0,0
616,0.4338648,-0.399003357,0.760355234,-0.0158486888,-0.0224717855,0.06049612,0.9955771,0.0040276377,0.00065395894,1.1659886e-05,0.00016376034,0,0
617,0.434497923,-0.3937433,0.754265547,-0.0443044864,-0.0170686226,0.067700766,0.99494517,0.004515171,0.0007826638,1.4720652e-05,0.0001944153,0,0
618,0.430477172,-0.395245165,0.754839838,-0.0938755646,-0.02200766,0.0782613754,0.9943419,0.0049128854,0.00085331924,1.7290093e-05,0.00022709773,0,0
619,0.429299682,-0.395420283,0.761541665,-0.113946676,-0.01655917,0.0601423346,0.9938607,0.0051963613,0.0008207435,1.8255725e-05,0.0002510642,0,0
620,0.432487935,-0.3894565,0.7681701,-0.08658183,0.00263933581,0.007986228,0.9935324,0.005396138,0.00069024344,1.7116467e-05,0.0002574047,0,0
621,0.431923062,-0.3845389,0.7651713,-0.06610849,0.0147147058,-0.0289099365,0.9933158,0.0055983653,0.0005247742,1.4686829e-05,0.00024740124,0,0
622,0.427503,-0.384690046,0.758963346,-0.0525439531,0.0190945715,-0.0483034961,0.9931296,0.0058748326,0.00038764204,1.2235063e-05,0.00023098855,0,0
623,0.427331716,-0.3884839,0.7661714,-0.0341875143,0.0187808182,-0.0572512038,0.9929298,0.0062222504,0.0003004748,1.0455206e-05,0.00021684862,0,0
624,0.432482958,-0.386493325,0.7724803,-0.00678419555,0.00626027351,-0.06803809,0.99274254,0.0065625734,0.00025307384,9.35239e-06,0.00020730177,0,0
625,0.432409674,-0.383713931,0.7695377,0.0133472374,0.00421520835,-0.08582339,0.99260944,0.006815267,0.00022996252,8.6941955e-06,0.00020096988,0,0
626,0.43385008,-0.384577841,0.7692079,0.0158008132,0.022334829,-0.100265622,0.9925449,0.006950924,0.00022126359,8.303985e-06,0.00019640052,0,0
627,0.436771631,-0.3803085,0.7718649,0.0272609238,0.0493044667,-0.121043079,0.9925568,0.0069716345,0.00022091893,8.047678e-06,0.00019246648,0,0
628,0.4343275,-0.382791638,0.772425,0.0413684733,0.061132282,-0.132580534,0.9926303,0.006924357,0.00022640824,7.905833e-06,0.00018901163,0,0
629,0.427978963,-0.3891532,0.767077863,0.0244317427,0.05336841,-0.119044013,0.9927006,0.0069031026,0.00023897151,7.983377e-06,0.00018704456,0,0
630,0.4266766,-0.3938779,0.7605755,0.00175856322,0.0546826124,-0.101406395,0.992699,0.0069882628,0.00026115845,8.365722e-06,0.00018705847,0,0
631,0.42607972,-0.395127267,0.7615004,0.00590731343,0.062924996,-0.09907461,0.99258363,0.0072233644,0.00029493013,9.084815e-06,0.00018889073,0,0
632,0.414162,-0.3981479,0.7688074,0.00551652163,0.0550302081,-0.09545941,0.9923032,0.007660505,0.00034315226,1.0235714e-05,0.00019330476,0,0
633,0.407096982,-0.406316251,0.770592034,-0.01909092,0.04423955,-0.07296985,0.99178463,0.008368467,0.00041010778,1.2002686e-05,0.00020207069,0,0
634,0.4099503,-0.414247364,0.772326231,-0.0276481435,0.04667327,-0.0512836538,0.9909832,0.009370968,0.00049604377,1.4502026e-05,0.00021650316,0,0
635,0.4095993,-0.413961381,0.780716836,-0.0177298486,0.0510319322,-0.0373148322,0.9899064,0.010619605,0.00059298944,1.768627e-05,0.00023725268,0,0
636,0.408831269,-0.404263169,0.7797702,-0.0318060964,0.04255205,-0.0103098275,0.98861706,0.012008329,0.00068632315,2.1332376e-05,0.00026436182,0,0
637,0.416387767,-0.3961476,0.773758,-0.0542352647,0.02518101,0.02281428,0.98725903,0.013359245,0.0007544352,2.4817704e-05,0.00029498557,0,0
638,0.422324568,-0.391977578,0.769800842,-0.0397176668,0.0115863457,0.0271155536,0.98605627,0.014433819,0.00076832157,2.6903952e-05,0.0003209772,0,0
639,0.421536565,-0.390587568,0.7675052,-0.00614438765,-0.00110426883,0.0175523181,0.9852031,0.015087933,0.00071483926,2.6645526e-05,0.0003327705,0,0
640,0.4233898,-0.391589075,0.7750408,-0.0169472825,-0.0159767251,0.0253615677,0.98471934,0.01539799,0.0006182198,2.452137e-05,0.0003278255,0,0
641,0.425635129,-0.390946358,0.7814589,-0.0549581945,-0.0283837859,0.0386069,0.984487,0.015518335,0.00051675184,2.1747968e-05,0.00031214886,0,0
642,0.42443046,-0.387802452,0.7710657,-0.06798324,-0.03180999,0.0352176949,0.98439723,0.015522138,0.00043338956,1.9140924e-05,0.00029317965,0,0
643,0.4191461,-0.3932649,0.7676013,-0.0691322461,-0.0286951568,0.0216720011,0.98438734,0.015447751,0.0003748401,1.705047e-05,0.00027552515,0,0
644,0.417221874,-0.39801538,0.7721431,-0.08051225,-0.02978533,0.020349443,0.9843971,0.015356593,0.00034056016,1.5617374e-05,0.00026192798,0,0
645,0.416906,-0.392762929,0.771703959,-0.09104568,-0.0305034611,0.0220370423,0.9843773,0.015296892,0.0003257037,1.4775503e-05,0.00025314963,0,0
646,0.418753833,-0.387268633,0.772045851,-0.0924283639,-0.0296786129,0.0126668066,0.9843045,0.01529547,0.00032408378,1.4355113e-05,0.00024832904,0,0
647,0.4291354,-0.38527444,0.773299158,-0.100338839,-0.0336605646,0.00847917,0.9841343,0.015413817,0.00033259095,1.4299202e-05,0.00024695584,0,0
648,0.4306428,-0.385260731,0.7737169,-0.0905597,-0.0247003734,0.000697939948,0.9838332,0.015691573,0.0003491717,1.4548181e-05,0.0002482379,0,0
649,0.4228445,-0.387372047,0.7777624,-0.0454404652,-0.005395524,-0.021761341,0.98341197,0.016108684,0.00037038344,1.4960936e-05,0.0002506392,0,0
650,0.416501552,-0.39068,0.7870862,-0.0158563051,-0.0042817,-0.0217981916,0.98282933,0.01672432,0.0003965809,1.5604242e-05,0.00025442915,0,0
651,0.415201038,-0.3865743,0.788403749,-0.03543848,-0.0230664779,0.0154374065,0.98195094,0.017700648,0.0004331754,1.6777265e-05,0.00026197667,0,0
652,0.422417283,-0.378695339,0.7870526,-0.07140944,-0.0360681638,0.054454904,0.980662,0.019145291,0.00048386474,1.8685396e-05,0.00027483594,0,0
653,0.4288917,-0.377859384,0.788067043,-0.0734669939,-0.03401671,0.06001116,0.9789916,0.020973532,0.0005431882,2.1160677e-05,0.00029190004,0,0
654,0.423400074,-0.381975263,0.7828713,-0.04754721,-0.0301402137,0.0462546051,0.9771029,0.022953793,0.00059784256,2.3712815e-05,0.00031026336,0,0
655,0.416035682,-0.3870907,0.7782097,-0.0396167636,-0.0327502079,0.05053763,0.97517073,0.024882248,0.0006372678,2.5902116e-05,0.00032728777,0,0
656,0.420416832,-0.386679977,0.776981354,-0.0419396646,-0.039296072,0.06367178,0.97335154,0.026581349,0.00065522286,2.7373337e-05,0.00034068583,0,0
657,0.4309918,-0.383450627,0.771851838,-0.0203652382,-0.0340284519,0.0559886135,0.97182894,0.027835086,0.0006455074,2.7687258e-05,0.0003473165,0,0
658,0.437120944,-0.382536918,0.767537832,0.0152055742,-0.0216303263,0.0321430564,0.9707594,0.028506849,0.00060720346,2.6660446e-05,0.0003448479,0,0
659,0.436071545,-0.3828834,0.7709827,0.04621857,-0.02139978,0.01000487,0.9701644,0.028647542,0.0005498727,2.4668574e-05,0.00033446663,0,0
660,0.4342569,-0.384463757,0.7739213,0.06684374,-0.024160862,-0.00305039459,0.9699037,0.028462404,0.00048903626,2.2376164e-05,0.00032035235,0,0
661,0.4308851,-0.382386357,0.7714829,0.07159034,-0.0247264821,-0.00598318269,0.9697718,0.02819874,0.00043758214,2.0338555e-05,0.0003071185,0,0
662,0.4250411,-0.379578,0.7744136,0.0678514242,-0.02243183,-0.000930169132,0.9695745,0.028075492,0.00040209372,1.8856133e-05,0.00029801953,0,0
663,0.420000672,-0.382385373,0.777180851,0.07334521,-0.014572111,0.00359210256,0.96916413,0.028252637,0.00038352705,1.799733e-05,0.00029445897,0,0
664,0.421412975,-0.384297729,0.7751736,0.0883019045,-0.007449576,0.000133142341,0.9684366,0.028846946,0.00037994597,1.771588e-05,0.00029657595,0,0
665,0.425952762,-0.381354451,0.768970668,0.100027569,-0.00573032,-0.0113073541,0.9672959,0.029978303,0.00038929647,1.7967714e-05,0.00030428212,0,0
666,0.425187379,-0.38086164,0.7698327,0.109966733,-0.007449576,-0.03108423,0.9656624,0.03175319,0.0004099247,1.8716675e-05,0.00031744977,0,0
667,0.427048117,-0.385417432,0.777606964,0.114344008,-0.0113517353,-0.0508019663,0.96343184,0.034304023,0.00044134946,1.9974494e-05,0.00033636257,0,0
668,0.4328767,-0.38368082,0.7741763,0.107644044,-0.009814521,-0.06695258,0.96047705,0.037781272,0.00048396992,2.1786744e-05,0.00036159833,0,0
669,0.433680266,-0.381311566,0.768963754,0.105410725,-0.00539995776,-0.087944746,0.95676583,0.042221636,0.00053612894,2.4098244e-05,0.00039287834,0,0
670,0.4336226,-0.387032241,0.767389,0.09863567,0.00139268965,-0.105939128,0.95229286,0.047630284,0.0005954695,2.6825504e-05,0.00042943275,0,0
671,0.434579939,-0.390729517,0.7686544,0.08218765,0.0150086405,-0.115129925,0.94705427,0.05398431,0.0006607324,2.9908088e-05,0.00047018376,0,0
672,0.432783157,-0.3924502,0.7653327,0.08734723,0.03338222,-0.12848103,0.9412169,0.061014913,0.000728167,3.3111315e-05,0.00051256537,0,0
673,0.425836563,-0.398394853,0.760319233,0.117801167,0.0536964126,-0.144283131,0.9350806,0.06829828,0.0007922103,3.608449e-05,0.00055278547,0,0
674,0.4150575,-0.407700628,0.7638564,0.137175784,0.06862687,-0.144584134,0.92878526,0.07563777,0.00085239206,3.876588e-05,0.0005887999,0,0
675,0.405116826,-0.4143833,0.773010731,0.123768441,0.06508989,-0.117724083,0.9221139,0.08324946,0.00091694517,4.1591305e-05,0.0006226641,0,0
676,0.401152223,-0.4184012,0.777689755,0.0845346451,0.04049794,-0.0583974123,0.9144702,0.09172623,0.001002574,4.5439323e-05,0.00066013884,0,0
677,0.4038997,-0.4177874,0.7771335,0.0427226275,0.007113963,0.00820405,0.9052344,0.10152447,0.0011258165,5.1154668e-05,0.0007067777,0,0
678,0.4093728,-0.4118862,0.777761936,0.016369326,-0.02033215,0.04672266,0.89429194,0.11239605,0.0012912232,5.8942984e-05,0.00076387293,0,0
679,0.41298756,-0.40894255,0.7768321,-0.007669002,-0.03480198,0.0577884875,0.8821703,0.12346501,0.0014881988,6.8136695e-05,0.00082733063,0,0
680,0.418424249,-0.409426183,0.7809167,-0.0277429968,-0.0392705165,0.0533180349,0.8700129,0.13342263,0.001689011,7.69928e-05,0.0008873415,0,0
681,0.425607562,-0.4061694,0.7813017,-0.0362080373,-0.0379220955,0.0433140844,0.8592023,0.14113376,0.001848675,8.308129e-05,0.0009301579,0,0
682,0.428653032,-0.39906168,0.774919569,-0.04364136,-0.03321572,0.0360772721,0.85071,0.14628457,0.0019192338,8.461709e-05,0.00094326737,0,0
683,0.4275523,-0.396529675,0.7718156,-0.0464738719,-0.0309374426,0.02657017,0.84471333,0.1493325,0.0018731689,8.151598e-05,0.0009225348,0,0
684,0.4289758,-0.395360142,0.769153357,-0.0314546674,-0.02840431,0.00779249845,0.84059495,0.15117016,0.0017223187,7.523874e-05,0.00087456143,0,0
685,0.428799242,-0.391389579,0.7734743,-0.00445428,-0.0218840633,-0.0158490688,0.837142,0.15296587,0.0015171192,6.785943e-05,0.00081192673,0,0
686,0.423043758,-0.392507464,0.774914563,0.0148333581,-0.018291682,-0.03366236,0.83285034,0.15607828,0.0013170457,6.110294e-05,0.00074689614,0,0
687,0.424543232,-0.3993905,0.7773478,0.01274877,-0.0167394783,-0.03108632,0.8260844,0.16208753,0.0011636702,5.6093526e-05,0.0006876905,0,0
688,0.425205827,-0.403312445,0.7784844,-0.000362052262,-0.0123199187,-0.0181664247,0.8155084,0.17240152,0.0010676612,5.3238455e-05,0.0006370752,0,0
689,0.419892818,-0.403968722,0.7695859,-0.0121819032,-0.007449576,-0.00747444155,0.8002339,0.18804008,0.0010215354,5.250046e-05,0.00059431995,0,0
690,0.413401753,-0.400606751,0.7692239,-0.0317304879,-0.00248319213,0.009214996,0.77960974,0.20972861,0.0010203565,5.3942727e-05,0.0005590993,0,0
691,0.41351673,-0.401602,0.7734978,-0.05988593,0.0013186296,0.0410290323,0.75331044,0.23761244,0.0010678758,5.795079e-05,0.00053353974,0,0
692,0.420391,-0.406491041,0.778991461,-0.0870081559,0.004256901,0.07611089,0.72193235,0.27047879,0.0011695113,6.496885e-05,0.0005201753,0,0
693,0.423496217,-0.409748316,0.7741495,-0.09746787,-0.0173823442,0.091707,0.68753785,0.30528697,0.0013190254,7.490956e-05,0.00051983725,0,0
694,0.4277865,-0.4090437,0.7666761,-0.09776177,-0.03417345,0.0926488042,0.65319026,0.3384868,0.0014994108,8.687444e-05,0.0005303793,0,0
695,0.4290538,-0.402298421,0.7697189,-0.09182912,-0.03799678,0.08480368,0.6219955,0.3670142,0.001685672,9.897203e-05,0.00054721086,0,0
696,0.426383823,-0.394027859,0.7715469,-0.07885458,-0.0321763866,0.07225587,0.5961742,0.38916248,0.0018462596,0.00010858086,0.0005639045,0,0
697,0.430376649,-0.3888296,0.7736211,-0.0716918,-0.0242056474,0.0623973943,0.5763686,0.4049141,0.0019491016,0.00011344329,0.00057324447,0,0
698,0.434800029,-0.388724446,0.773661435,-0.0717874,-0.0176465753,0.0527258851,0.56190974,0.41550684,0.0019670976,0.000112746195,0.00056958344,0,0
699,0.4287875,-0.390968055,0.775139749,-0.0746572,-0.01155806,0.0427619554,0.55125165,0.42287573,0.0018937341,0.00010754947,0.0005517993,0,0
700,0.4236909,-0.396598727,0.776446342,-0.08199915,-0.0006600109,0.0397953875,0.5422598,0.42919266,0.0017574496,0.000100222525,0.00052457914,0,0
701,0.425084472,-0.39180243,0.7739522,-0.08622018,0.0125506977,0.0409349836,0.5330313,0.4359787,0.0016057364,9.2970055e-05,0.000495382,0,0
702,0.426200032,-0.3889016,0.7714932,-0.08407977,0.0229848772,0.04734546,0.5222652,0.4441829,0.0014810186,8.7154156e-05,0.00047024692,0,0
703,0.426571876,-0.3942823,0.770348,-0.09684648,0.02291552,0.06402669,0.50907487,0.4544036,0.001410896,8.3535066e-05,0.00045256971,0,0
704,0.421975762,-0.396075875,0.770129,-0.118839145,0.00834799,0.083422035,0.49322045,0.4666576,0.0014059653,8.240454e-05,0.00044359502,0,0
705,0.405632526,-0.4033469,0.7749388,-0.137521759,-0.0227587428,0.109752677,0.47467017,0.48100445,0.0014707391,8.399612e-05,0.0004433655,0,1
706,0.406695217,-0.4077237,0.7806111,-0.156520009,-0.0732134655,0.171031341,0.45289788,0.4979354,0.0016232515,8.9153924e-05,0.0004526333,0,1
707,0.4303242,-0.398765951,0.7849433,-0.180944577,-0.121603727,0.23828347,0.42854804,0.51676553,0.0018825892,9.856177e-05,0.0004718634,0,1
708,0.428597659,-0.379504,0.7650657,-0.210716575,-0.117513515,0.191880956,0.40562472,0.53388274,0.002198646,0.000109904126,0.0004963964,0,1
709,0.416466147,-0.376501322,0.7354906,-0.122536168,-0.0590367131,0.08347111,0.38806558,0.5475345,0.0024473905,0.00011843882,0.00051668653,0,1
710,0.4267452,-0.375500441,0.7502091,0.0500185862,-0.020388389,0.050527174,0.37497935,0.5597323,0.002567729,0.00012221037,0.0005264964,0,1
711,0.438797861,-0.363448054,0.7723679,-0.0113517344,-0.005731905,0.0508976,0.3633339,0.5712677,0.0025920295,0.00012241214,0.0005246514,0,1
712,0.444280267,-0.359430581,0.7817073,-0.0438697226,0.00305574946,0.0375408866,0.3527409,0.5820523,0.0025354754,0.00011997997,0.00051484007,0,1
713,0.450502276,-0.357114881,0.7844949,-0.06322286,-4.56420639e-05,0.0203179475,0.34261882,0.5924076,0.0024170845,0.000115675655,0.0004992911,0,1
714,0.445252061,-0.362690657,0.78021574,-0.0558389835,0.009208071,-0.008126503,0.3327561,0.60277575,0.0022570353,0.0001100414,0.00047996978,0,1
715,0.434712917,-0.3754542,0.777975559,-0.009389707,0.0161948,-0.0484705158,0.32309672,0.6134194,0.0020732523,0.00010326694,0.0004581465,0,1
716,0.431199878,-0.3813363,0.779507458,0.04405075,0.005398266,-0.08001035,0.3131639,0.6248043,0.0018915486,9.582451e-05,0.0004349231,0,1
717,0.4336096,-0.3816694,0.7829478,0.0583168156,-0.008488088,-0.0848477557,0.30212912,0.63765967,0.0017465184,8.8796725e-05,0.00041191286,0,1
718,0.437342525,-0.378850728,0.7808394,0.0584605336,-0.0159548055,-0.08716971,0.28993303,0.6518672,0.0016522692,8.282578e-05,0.00039057856,0,1
719,0.441191,-0.3707497,0.778508961,0.07447182,-0.00602775253,-0.107454486,0.2773674,0.6666511,0.0016010131,7.785522e-05,0.00037135553,0,1
720,0.448333174,-0.362515539,0.77236104,0.0783899352,0.0263700876,-0.133372128,0.26508233,0.6814763,0.0015860391,7.3864765e-05,0.00035431253,0,1
721,0.4503884,-0.363677055,0.762987554,0.0608946644,0.07583622,-0.160103172,0.25349554,0.6959373,0.0016036648,7.09277e-05,0.00033980486,0,1
722,0.447167248,-0.367319435,0.763606548,0.0160413217,0.118575811,-0.175044134,0.24250893,0.7097698,0.0016589818,6.924765e-05,0.00032863813,0,1
723,0.445768,-0.3713005,0.773741245,-0.022322746,0.1349508,-0.186409816,0.232147,0.72251403,0.0017561987,6.886275e-05,0.00032193368,0,1
724,0.432280749,-0.3788124,0.7725622,-0.00460298127,0.138280675,-0.208644941,0.22298667,0.7337581,0.0018864335,6.950355e-05,0.0003202418,0,1
725,0.411508948,-0.384571582,0.777052,0.03855149,0.131586313,-0.210026026,0.21478753,0.7438787,0.002052327,7.1314826e-05,0.00032385334,0,1
726,0.3997022,-0.3983728,0.7899418,0.06606176,0.106651388,-0.159403577,0.20645891,0.75367534,0.0022890249,7.53167e-05,0.0003345113,0,1
727,0.398533553,-0.40492633,0.790006638,0.07132968,0.07492679,-0.0798168853,0.19737643,0.7631333,0.0026600244,8.29116e-05,0.0003558236,0,1
728,0.411815882,-0.3949038,0.780913651,0.0564128,0.04980752,-0.0220656656,0.18804662,0.770796,0.003254907,9.487816e-05,0.00039204967,0,1
729,0.4216144,-0.388633281,0.7751157,0.04079825,0.03788701,0.0170276035,0.1797483,0.7744125,0.004227097,0.0001102091,0.00044445347,0,1
730,0.420811564,-0.38833347,0.777414858,0.0263701174,0.0420725644,0.00425690133,0.17466289,0.77107066,0.005735574,0.00012332105,0.0005011038,0,1
731,0.4236364,-0.390186667,0.774926,-0.0100112716,0.0580121577,-0.0088685425,0.17428307,0.7596779,0.007745093,0.0001258304,0.00053243304,0,1
732,0.4263684,-0.387386441,0.7799558,-0.06009577,0.07503184,-0.020338526,0.17808057,0.74284595,0.009597116,0.00011609811,0.00052020163,0,1
733,0.424023837,-0.3812447,0.7842366,-0.09772036,0.08602619,-0.0390610062,0.18313725,0.7261848,0.0102789635,0.0001012132,0.00047668375,0,1
734,0.411523581,-0.384568542,0.7848497,-0.07904462,0.08614355,-0.06871479,0.18657333,0.7139791,0.009595586,8.683536e-05,0.0004203153,0,1
735,0.40019536,-0.394140035,0.789936841,-0.008256379,0.07128353,-0.08072783,0.18742639,0.70775175,0.00824232,7.462686e-05,0.0003621579,0,1
736,0.400325537,-0.398144335,0.789679468,0.0391073972,0.0507215448,-0.06060974,0.1860191,0.70757943,0.0069687474,6.509108e-05,0.00030980667,0,1
737,0.407204866,-0.393131465,0.790733039,0.0428341031,0.0282589179,-0.0315549821,0.18285862,0.7131637,0.006089124,5.8209058e-05,0.00026826691,0,1
738,0.415682882,-0.3890191,0.785224855,0.0373362452,0.0140312826,-0.0176131632,0.17813978,0.72471243,0.0055584293,5.3331656e-05,0.00023802122,0,1
739,0.4167185,-0.3868345,0.775088,0.04011527,0.0163835716,-0.0246723667,0.17180204,0.7428968,0.0052249315,4.95213e-05,0.00021605693,0,1
740,0.4146223,-0.385780782,0.775778055,0.0353657454,0.0267456919,-0.03518449,0.16368884,0.76735544,0.004983892,4.6131267e-05,0.00019896012,0,1
741,0.417829841,-0.385429531,0.774217665,0.0142717734,0.03942302,-0.0397527628,0.1541555,0.7946474,0.004800449,4.3165186e-05,0.00018531301,0,1
742,0.421665937,-0.383033782,0.7758134,-0.0186556969,0.0539363027,-0.0444681942,0.14423382,0.8194336,0.004682485,4.107178e-05,0.00017554143,0,1
743,0.42082873,-0.386141449,0.777810156,-0.04807809,0.06906158,-0.05774648,0.13507251,0.8383767,0.0046372614,4.0180737e-05,0.00017030055,0,1
744,0.406226754,-0.398407817,0.7779875,-0.0369557925,0.07232963,-0.07458854,0.12727186,0.8516201,0.0046412116,4.0394887e-05,0.00016924897,0,1
745,0.388989657,-0.411122918,0.7834177,0.005063746,0.0542629249,-0.06246547,0.1207129,0.8610944,0.0046838094,4.148582e-05,0.00017114918,0,1
746,0.3895916,-0.406734973,0.781647,0.0190702584,0.02766567,-0.0225955322,0.11515218,0.8682262,0.0047866567,4.3260417e-05,0.0001747525,0,1
747,0.400859952,-0.3909494,0.7823589,0.00422830228,0.00602921471,0.009495759,0.11061755,0.8734216,0.0049595004,4.5330948e-05,0.00017905905,0,1
748,0.410312682,-0.383083373,0.785688639,-0.000719016243,-0.004020871,0.0170001816,0.10722283,0.8768352,0.005170958,4.713125e-05,0.00018320738,0,1
749,0.411184937,-0.383553833,0.785822,0.003307745,-0.00240451563,0.003538277,0.10488627,0.87888426,0.005343725,4.8155292e-05,0.00018624032,0,1
750,0.412452251,-0.3824086,0.78619194,0.00358577375,0.00345539558,-0.008398601,0.10323282,0.8803124,0.005392303,4.821144e-05,0.0001872953,0,1
751,0.4158044,-0.378771633,0.7841994,-0.00128793425,0.01179405,-0.01627972,0.101754054,0.88191867,0.0052567567,4.7449543e-05,0.00018606657,0,1
752,0.417410046,-0.37576893,0.7828842,-0.009297854,0.02273266,-0.0284847841,0.09995793,0.8843229,0.0049279886,4.6191224e-05,0.00018291692,0,1
753,0.414690048,-0.379650831,0.781957448,-0.0119678276,0.0377306,-0.0467428081,0.09745461,0.88787144,0.004459586,4.4768505e-05,0.00017870632,0,1
754,0.4062964,-0.3946167,0.7834389,0.008781427,0.0445036255,-0.06276158,0.09397821,0.89261633,0.0039495113,4.3409273e-05,0.00017438963,0,1
755,0.397639155,-0.403837085,0.788978338,0.03982028,0.0361190438,-0.06278005,0.08945963,0.89837235,0.0034974555,4.2299256e-05,0.00017060124,0,1
756,0.395078927,-0.4000746,0.7953821,0.0522950143,0.0255198684,-0.04930602,0.08411438,0.9047441,0.003160152,4.1626226e-05,0.00016769415,0,1
757,0.3930862,-0.4006108,0.8006091,0.04793946,0.0134730069,-0.0277870744,0.07833893,0.91124845,0.0029514832,4.156288e-05,0.00016597183,0,1
758,0.388841242,-0.408602029,0.80056113,0.0461328663,-0.006151249,0.008119985,0.072568044,0.9174549,0.0028718659,4.2329768e-05,0.00016584054,0,1
759,0.3901932,-0.411916822,0.7964761,0.04517593,-0.023689663,0.0495325662,0.06723386,0.92297435,0.002918743,4.415908e-05,0.00016770967,0,1
760,0.396177679,-0.40406993,0.7895806,0.03102202,-0.0359211527,0.08355704,0.06268395,0.92746055,0.0030917844,4.7186473e-05,0.00017188463,0,1
761,0.406310529,-0.3936418,0.782399237,0.007857482,-0.0385793447,0.10341233,0.059146814,0.93065906,0.0033944887,5.129927e-05,0.00017847626,0,1
762,0.415222019,-0.386422276,0.7819586,-0.009442057,-0.0245662574,0.0933579,0.056721922,0.93244725,0.0038156647,5.5907687e-05,0.00018712589,0,1
763,0.4194946,-0.38076055,0.786369,-0.0116611533,-0.00215814332,0.05595122,0.0553299,0.9329482,0.004306481,5.9959704e-05,0.00019667938,0,1
764,0.422220856,-0.3785478,0.7873509,0.0003698493,0.0177271888,0.0143935047,0.05469806,0.9326318,0.004762813,6.242256e-05,0.00020512637,0,1
765,0.4223158,-0.383669585,0.7878409,0.023536237,0.0335789174,-0.0179056358,0.054402668,0.9322647,0.00503117,6.287817e-05,0.0002102402,0,1
766,0.4159998,-0.392375559,0.7904456,0.04651226,0.0470218845,-0.03966901,0.05396991,0.93267477,0.00498349,6.172331e-05,0.00021074357,0,1
767,0.407872319,-0.3975562,0.7900118,0.0555899031,0.0522123575,-0.04514976,0.053011015,0.9343704,0.0046365,5.9822745e-05,0.00020706197,0,1
768,0.4001176,-0.400096864,0.7856355,0.0540041439,0.0518140644,-0.0391723551,0.051355135,0.9372975,0.004145013,5.7929185e-05,0.00020089322,0,1
769,0.395742327,-0.3999672,0.783037364,0.05241133,0.04529595,-0.0261828955,0.049053703,0.94098383,0.0036798269,5.641858e-05,0.00019405139,0,1
770,0.397050828,-0.40366745,0.783310652,0.0359170139,0.0324809961,-0.0023422807,0.04631105,0.9448996,0.003341398,5.5505596e-05,0.00018775376,0,1
771,0.396347672,-0.402622223,0.7866569,0.00842492,0.0175670926,0.0229869355,0.043394454,0.94861573,0.0031545868,5.5376593e-05,0.00018290052,0,1
772,0.4034375,-0.397553772,0.785981953,-0.008543429,0.006919923,0.0395890661,0.040569182,0.95184916,0.0031048246,5.6143832e-05,0.00018013842,0,1
773,0.410195321,-0.3926091,0.784292161,-0.0220038649,0.006563542,0.0380282775,0.03803737,0.9544741,0.0031634732,5.781478e-05,0.00017967338,0,1
774,0.411959648,-0.3870546,0.782752335,-0.0339402519,0.0110563906,0.02260886,0.03590203,0.9564755,0.0033027395,6.0283455e-05,0.00018143108,0,1
775,0.4102691,-0.384552032,0.778170049,-0.0375643037,0.01964884,0.00292464416,0.03419218,0.9579208,0.0034974588,6.337105e-05,0.00018520968,0,1
776,0.4018931,-0.3843689,0.778270245,-0.029549038,0.0299625676,-0.01569798,0.03287307,0.9589271,0.0037229075,6.683165e-05,0.00019063661,0,1
777,0.400077671,-0.394399017,0.7758622,-0.006657003,0.0376573764,-0.0187128466,0.03188037,0.95962375,0.003963418,7.0454065e-05,0.00019728583,0,1
778,0.4045181,-0.399369985,0.7784775,0.0133896349,0.0430602431,-0.0143966749,0.031127885,0.96011645,0.0042053796,7.4041214e-05,0.00020459155,0,1
779,0.4107183,-0.394516557,0.782767236,0.01829814,0.03954008,-0.0122484677,0.030525533,0.9604921,0.004427953,7.734064e-05,0.00021186292,0,1
780,0.410343617,-0.3951774,0.7796399,0.017451115,0.03304556,-0.0136608491,0.03000262,0.9608594,0.004599947,8.0101985e-05,0.00021831741,0,1
781,0.405498654,-0.396536976,0.7785974,0.018233,0.0319449455,-0.0251286384,0.029497713,0.96134514,0.0046806918,8.2087914e-05,0.00022306707,0,1
782,0.403558135,-0.3965019,0.7782499,0.0213315617,0.0337065272,-0.04101245,0.028955054,0.96206117,0.004643596,8.316642e-05,0.00022539572,0,1
783,0.403074056,-0.3969785,0.780412734,0.0244771782,0.0396148451,-0.0583682768,0.028333414,0.96306914,0.0044927676,8.333203e-05,0.00022496675,0,1
784,0.4037265,-0.39550975,0.783900559,0.008159059,0.0415842868,-0.0733768344,0.027608898,0.9643434,0.0042664534,8.267995e-05,0.00022184411,0,1
785,0.399874955,-0.396485,0.7834356,-0.00558736455,0.03904809,-0.0851197839,0.02678385,0.9657898,0.0040167244,8.134732e-05,0.00021675226,0,1
786,0.392731756,-0.403320521,0.7862103,-0.0138349272,0.0371384658,-0.09009832,0.025882734,0.96730137,0.0037915711,7.9585305e-05,0.00021058769,0,1
787,0.386118919,-0.4082032,0.787297964,-0.0102875093,0.0283428673,-0.07721342,0.024941282,0.96876174,0.0036337469,7.7841185e-05,0.00020448331,0,1
788,0.380659431,-0.4104818,0.785056353,0.007922566,0.009802365,-0.0512792133,0.02400647,0.9700589,0.0035704328,7.6632205e-05,0.0001996389,0,1
789,0.3855128,-0.4065213,0.78886646,0.0242801011,-0.0123411817,-0.0124814287,0.02313473,0.9710918,0.0036260674,7.654222e-05,0.000197104,0,1
790,0.3960824,-0.3920175,0.7929034,0.02086407,-0.0225602984,0.0210261866,0.022393825,0.9717699,0.00381738,7.809294e-05,0.00019784135,0,1
791,0.4028608,-0.384578735,0.790993869,0.0183064248,-0.0167433862,0.024036333,0.021847539,0.9720404,0.004136159,8.134981e-05,0.00020254155,0,1
792,0.404306442,-0.387470245,0.7888925,0.0238392279,-0.00380742,0.00623840233,0.021524314,0.97190905,0.00456213,8.59395e-05,0.00021121187,0,1
793,0.4020214,-0.3928286,0.788192034,0.0256834943,0.00759940362,-0.0145933926,0.021403834,0.97143215,0.0050685685,9.117862e-05,0.00022304773,0,1
794,0.401748031,-0.399172038,0.785517156,0.0227508321,0.0128206434,-0.0236657765,0.021434171,0.97070706,0.0056180866,9.6197036e-05,0.00023639287,0,1
795,0.402959,-0.401123762,0.783323467,0.0121952528,0.01668951,-0.02633516,0.021550149,0.96988577,0.0061382027,0.000100094636,0.00024865646,0,1
796,0.4043392,-0.3994957,0.7768956,-0.00106422522,0.0208170637,-0.03006289,0.021684246,0.96917504,0.006512258,0.00010222428,0.0002570258,0,1
797,0.402357846,-0.400906116,0.775566757,-0.00223993766,0.025740331,-0.0394645259,0.021763109,0.9688062,0.0066205435,0.00010247423,0.00025973984,0,1
798,0.400720835,-0.402190059,0.7816343,0.005321126,0.0288003888,-0.0511122048,0.021720422,0.96894556,0.0064236852,0.00010128117,0.0002567867,0,1
799,0.399361372,-0.4027808,0.7830057,0.00496638427,0.0248540249,-0.05854218,0.021519253,0.969601,0.0060043274,9.925395e-05,0.0002495407,1,1
