frame,accel_x_input,accel_x_given,accel_x_output,accel_x_simple_output,accel_y_input,accel_y_given,accel_y_output,accel_y_simple_output,accel_z_input,accel_z_given,accel_z_output,accel_z_simple_output,gyro_x_input,gyro_x_given,gyro_x_output,gyro_y_input,gyro_y_given,gyro_y_output,gyro_z_input,gyro_z_given,gyro_z_output
0,-0.5913086,-0.5965634,-0.50602764,-0.58162796,0.76171875,0.763303936,0.70413005,0.7727222,0.309082031,0.313128,0.38259685,0.31608704,0.00106422522,0.00106422522,0.012849612,-0.00106422522,-0.00134013547,-0.20024669,0.0,1.45984257e-06,0.06943282
1,-0.603027344,-0.597617447,-0.5125222,-0.5948015,0.764160156,0.763061,0.6815703,0.7731327,0.313476563,0.310918957,0.38619635,0.31692085,0.00106422522,0.00106422522,0.012849612,-0.00319267553,-0.00186567882,-0.20042722,0.0,0.00039340416,0.069508925
2,-0.5932617,-0.591783941,-0.5399248,-0.5805481,0.76171875,0.7644448,0.6795493,0.76986474,0.306152344,0.308717757,0.38232023,0.3149023,0.00106422522,0.00106422522,0.012858132,-0.00106422522,-0.00168611819,-0.20058878,0.00106422522,0.00106422522,0.06961269
3,-0.584472656,-0.592280865,-0.52935845,-0.5720951,0.7685547,0.7619764,0.67930347,0.777162,0.309082031,0.305054337,0.38205832,0.31036237,0.00106422522,0.00106422522,0.012858772,-0.00212845043,-0.00198100624,-0.20062765,0.0,0.000354741729,0.069609225
4,-0.600585938,-0.593423069,-0.5383985,-0.5844916,0.7529297,0.7580612,0.67828345,0.76013356,0.297363281,0.304972529,0.3829408,0.31088626,0.00106422522,0.00106422522,0.0127219595,-0.00212845043,-0.00207930245,-0.20035098,0.0,0.000118247241,0.06951047
5,-0.587402344,-0.593315542,-0.5396198,-0.5774924,0.759277344,0.7603368,0.67577225,0.76785326,0.3125,0.310967416,0.3786827,0.3162385,0.00106422522,0.00106422522,0.012542444,-0.00212845043,-0.00212845043,-0.2000645,0.0,0.000465546123,0.069749646
6,-0.5991211,-0.5994646,-0.54143554,-0.5882314,0.7636719,0.7615836,0.6765574,0.7779031,0.3154297,0.313128471,0.38096794,0.3191974,0.0,0.00106431264,0.012240111,0.0,-0.000709483458,-0.1994277,0.00106422522,0.00106422522,0.07022947
7,-0.605957031,-0.5984218,-0.5415682,-0.5922711,0.7607422,0.7624875,0.67672414,0.76476276,0.312988281,0.3135233,0.3820588,0.31857106,0.00106422522,0.00106422522,0.011971977,0.0,-0.000236494481,-0.1990719,0.00212845043,0.00212845043,0.07032441
8,-0.58984375,-0.596772134,-0.53960407,-0.58347964,0.7651367,0.762951553,0.68062335,0.7752555,0.314453125,0.315608025,0.38022116,0.31946322,-0.00106422522,-0.00106422522,0.011714184,0.0,-7.88314937e-05,-0.19875787,0.0,0.000709483458,0.069982566
9,-0.6020508,-0.5965478,-0.5403263,-0.5835571,0.761230469,0.7609904,0.68207973,0.7724222,0.318847656,0.3180933,0.38329062,0.32414773,0.0,-0.0009847159,0.011671154,0.0,0.00038750688,-0.1987139,0.0,0.000236494481,0.069603756
10,-0.5908203,-0.595333636,-0.5438803,-0.5871812,0.758789063,0.762452543,0.68311876,0.76724035,0.319824219,0.3190845,0.38126782,0.32440653,0.00106422522,0.00106422522,0.011881961,0.00106422522,0.00106422522,-0.19915201,0.0,7.88314937e-05,0.0694576
11,-0.5986328,-0.5937896,-0.5460764,-0.5840314,0.7675781,0.762288868,0.68223625,0.7776849,0.319335938,0.310951352,0.38110355,0.3183398,0.0,0.000354741729,0.011926582,-0.00212845043,-0.00106422522,-0.1995431,0.0,0.000392602349,0.06960777
12,-0.587402344,-0.5927866,-0.54095167,-0.5772409,0.756835938,0.759630144,0.67973363,0.76424354,0.2944336,0.306775451,0.3828541,0.31612757,0.0,0.000118247241,0.011818293,-0.00212845043,-0.00141896692,-0.19955423,0.00106422522,0.00106422522,0.06989388
13,-0.597167969,-0.598637164,-0.54308534,-0.58695614,0.7597656,0.762324631,0.6780711,0.7677461,0.3149414,0.309289724,0.3808369,0.31613874,0.0,3.94157469e-05,0.011847471,-0.00106422522,-0.000472988962,-0.19925289,0.00106422522,0.00106422522,0.06983171
14,-0.605957031,-0.5991225,-0.53637224,-0.6016788,0.7675781,0.7635483,0.6788275,0.78010434,0.306152344,0.309476763,0.38277724,0.31570774,0.0,0.000383731327,0.011981069,0.00106422522,0.000906562258,-0.19863829,0.0,-0.000165647973,0.069417045
15,-0.592773438,-0.5930994,-0.53498966,-0.58375776,0.7607422,0.762165844,0.678041,0.76683646,0.312988281,0.311817765,0.38056457,0.31757534,0.00106422522,0.00106422522,0.011931904,0.00212845043,0.00136641262,-0.19833858,-0.00212845043,-0.00212845043,0.069191836
16,-0.587402344,-0.592556536,-0.5377318,-0.57543707,0.762207031,0.7630071,0.682839,0.77201515,0.312988281,0.3114588,0.38116002,0.3160113,-0.00106422522,0.000354741729,0.011864971,0.00106422522,0.000100729136,-0.19866101,0.00106422522,0.00106422522,0.06933791
17,-0.597167969,-0.5972584,-0.5365846,-0.58777684,0.764648438,0.7644269,0.6818609,0.7760348,0.3095703,0.308897734,0.3829559,0.31278294,0.00106422522,0.0008277307,0.012046033,-0.00212845043,-0.001030649,-0.19912405,0.0,0.000354741729,0.06950026
18,-0.6020508,-0.6011043,-0.54397696,-0.5921922,0.765625,0.765062869,0.682895,0.7697903,0.305664063,0.308044046,0.38075894,0.31198692,0.00106422522,0.0009853938,0.012456348,-0.00106422522,-0.001053033,-0.1996165,0.0,0.000118247241,0.06950368
19,-0.6040039,-0.601084232,-0.54439205,-0.59525204,0.7651367,0.766739666,0.6828947,0.7795443,0.3095703,0.311665744,0.3832581,0.3156093,0.00106422522,0.00106422522,0.012618547,-0.00106422522,-0.00106049457,-0.19974642,0.0,0.0005386232,0.069375925
20,-0.598144531,-0.5955437,-0.5377234,-0.5879868,0.770019531,0.7642062,0.6847289,0.7694597,0.3173828,0.3148261,0.38200197,0.32024634,0.0,0.00148602063,0.012630869,-0.00106422522,-0.00106298167,-0.1996689,0.00106422522,0.00106422522,0.069185376
21,-0.587402344,-0.589953363,-0.53817934,-0.57642925,0.7558594,0.761083066,0.6861832,0.77033573,0.3154297,0.312461585,0.3813629,0.3193075,0.00212845043,0.00212845043,0.012654566,-0.00106422522,-0.00106422522,-0.19953641,-0.00106422522,-0.000354741729,0.06897505
22,-0.586914063,-0.589392,-0.5336635,-0.5764081,0.7631836,0.75955373,0.6864416,0.7673678,0.3071289,0.309394747,0.38297322,0.31557876,0.0,0.00191332249,0.012558747,0.0,-0.00145865383,-0.19945775,-0.00106422522,-0.00106422522,0.06885906
23,-0.5913086,-0.5929484,-0.53560346,-0.5815329,0.754394531,0.7645778,0.6887589,0.7595176,0.30859375,0.312441468,0.3832574,0.31778193,0.00106422522,0.00106422522,0.012259064,-0.00212845043,-0.00212845043,-0.19945079,0.0,-0.00116327486,0.06898355
24,-0.598144531,-0.5957615,-0.53999853,-0.5885328,0.779785156,0.7716236,0.6800429,0.7864316,0.319335938,0.313619822,0.38264954,0.32081217,0.0,-0.000364220061,0.0117000295,0.0,-0.00113713928,-0.19926451,-0.00106422522,-0.00106422522,0.06922594
25,-0.5961914,-0.5963736,-0.5392163,-0.58521587,0.7705078,0.765996933,0.67949075,0.78479606,0.309082031,0.310920149,0.38214305,0.31638575,-0.00212845043,-0.00212845043,0.011369184,0.00106422522,0.00106422522,-0.1991054,0.00106422522,0.00106422522,0.069326274
26,-0.597167969,-0.5980425,-0.53930557,-0.5852417,0.7558594,0.763958633,0.6821068,0.7625153,0.3100586,0.312136143,0.38385713,0.31524795,0.00106422522,-0.000709483458,0.011254263,-0.00106422522,-0.00106422522,-0.19910419,0.0,0.0009754637,0.06923738
27,-0.600585938,-0.5997381,-0.54158556,-0.59143007,0.770019531,0.766697168,0.6819852,0.7825174,0.3154297,0.313843578,0.3870366,0.3189447,-0.00106422522,-0.000945978041,0.011232264,0.0,-0.001938954,-0.19923466,-0.00106422522,-0.00106422522,0.0690744
28,-0.600585938,-0.598187447,-0.5398,-0.59091914,0.7661133,0.7630527,0.6795703,0.7802258,0.313964844,0.31701687,0.3832285,0.3238765,-0.00106422522,-0.000315326,0.011544581,-0.00106422522,-0.00106422522,-0.19962415,0.0,-0.00168307265,0.068963625
29,-0.5942383,-0.595229149,-0.53952783,-0.582921,0.756347656,0.7620006,0.681205,0.75678915,0.3232422,0.317911863,0.38269216,0.32579675,0.00106422522,0.0009591165,0.012081945,-0.00212845043,-0.00141896692,-0.19984846,-0.00106422522,-0.00106422522,0.069026016
30,-0.5932617,-0.5952196,-0.5387298,-0.58212644,0.766601563,0.7647424,0.67888993,0.7765697,0.313476563,0.3133274,0.38311023,0.31925344,0.00212845043,0.00138393079,0.01254816,-0.00106422522,-0.00153721415,-0.19988817,0.0,-6.2568e-05,0.06917193
31,-0.597167969,-0.596030235,-0.5358447,-0.5857455,0.765625,0.7620756,0.67923,0.7761996,0.30859375,0.310497165,0.3806433,0.31484222,0.00106422522,0.000461310265,0.012412083,-0.00212845043,-0.00212845043,-0.19976948,0.00106422522,0.00106422522,0.06910601
32,-0.5957031,-0.5963004,-0.5383561,-0.5875837,0.7558594,0.758745253,0.67679644,0.76548487,0.3095703,0.31264618,0.38323435,0.31753296,-0.00106422522,-0.00106422522,0.01174571,0.0,-0.000756971247,-0.1992026,-0.00212845043,-0.00212845043,0.068870865
33,-0.597167969,-0.594925642,-0.53712326,-0.5836304,0.7583008,0.7582862,0.67842764,0.7683376,0.3178711,0.3117349,0.38081306,0.31863293,0.0,-0.0006992528,0.011604088,0.00212845043,0.00212845043,-0.19877294,0.0,-0.00208967039,0.06897848
34,-0.5913086,-0.595769465,-0.53639513,-0.5805921,0.7578125,0.7602491,0.6749704,0.76899195,0.3046875,0.313872576,0.3810946,0.3228271,0.00106422522,0.00106422522,0.012029991,-0.00106422522,0.00106422522,-0.19835933,0.00106422522,0.00106422522,0.06938772
35,-0.6010742,-0.597678363,-0.5413552,-0.59018546,0.764648438,0.761228859,0.6745663,0.77243006,0.3251953,0.3175148,0.38285348,0.32588866,0.0,0.00158669846,0.012247792,0.00212845043,0.0007094836,-0.19827873,0.00106422522,0.000354741729,0.0696598
36,-0.5961914,-0.5958733,-0.5399573,-0.584647,0.758789063,0.7579747,0.6794557,0.768031,0.313476563,0.3136833,0.38201544,0.31922138,0.00106422522,0.00106422522,0.012156983,-0.00106422522,-0.00106422522,-0.19853532,-0.00106422522,0.000118247233,0.06965532
37,-0.59375,-0.5955971,-0.5398815,-0.57975715,0.75390625,0.758517563,0.6791876,0.7595278,0.3100586,0.311104059,0.38590404,0.3153575,0.0,0.000354741729,0.0120557705,0.0,-0.000354741729,-0.19880079,0.00106422522,0.000748899241,0.069795996
38,-0.597167969,-0.5971326,-0.54118013,-0.5893722,0.7636719,0.7614655,0.67732,0.7711489,0.3095703,0.31333676,0.38410336,0.31883585,0.0,0.000430088927,0.012100893,0.0,-0.001006704,-0.19927233,0.00106422522,0.0009591165,0.07013316
39,-0.5986328,-0.5947148,-0.53385067,-0.58450115,0.762207031,0.7580536,0.67551297,0.7736926,0.319335938,0.313918233,0.38261032,0.320884,0.00106422522,0.00106422522,0.012143115,-0.00319267553,-0.00319267553,-0.19949137,0.00106422522,0.00138393079,0.070401445
40,-0.5883789,-0.5947227,-0.53519434,-0.58089626,0.7504883,0.75496316,0.67646617,0.75433636,0.309082031,0.3098803,0.38322613,0.31502894,0.0,0.000354741729,0.012096605,0.0,-0.00226015551,-0.19936688,0.00212845043,0.00212845043,0.07043944
41,-0.6010742,-0.5957019,-0.5375831,-0.58534116,0.756347656,0.7588158,0.67489487,0.76864076,0.306640625,0.305930138,0.38312978,0.30884776,0.0,0.000118247241,0.012013967,0.00106422522,0.00106422522,-0.19914347,0.0,0.0019461097,0.07025573
42,-0.5913086,-0.596028268,-0.53692013,-0.5831492,0.7651367,0.7597745,0.6778056,0.7793062,0.301269531,0.309984535,0.38366386,0.31494647,0.0,0.000465733377,0.011833418,0.0,0.0012527582,-0.19884863,0.00106422522,0.00106422522,0.07002734
43,-0.6010742,-0.5969508,-0.54093874,-0.5874605,0.7553711,0.758141,0.6789068,0.7593547,0.3227539,0.3183347,0.3837672,0.324171,0.00106422522,0.00106422522,0.011596545,-0.00106422522,-0.00106422522,-0.19877729,0.00106422522,0.000354741729,0.069602676
44,-0.59375,-0.595468,-0.54020727,-0.5843983,0.759277344,0.763944149,0.68207484,0.7688522,0.322265625,0.320141524,0.38484848,0.32726136,-0.00212845043,0.00123178994,0.011340415,0.00106422522,-0.000354741729,-0.19889323,-0.00106422522,-0.0005912362,0.06913576
45,-0.5957031,-0.5964386,-0.54007643,-0.5816182,0.774414063,0.7660413,0.6824662,0.7855872,0.319824219,0.320581049,0.3834523,0.32817256,0.00106422522,0.00106422522,0.011398613,-0.00106422522,-0.0008277307,-0.19904627,-0.00106422522,-0.00106422522,0.06907168
46,-0.598144531,-0.598877966,-0.53844506,-0.5877829,0.7597656,0.760718167,0.68310213,0.7689806,0.321777344,0.318286151,0.38297084,0.32381862,0.0,0.000354741729,0.011645127,-0.00106422522,-0.00106422522,-0.19888161,0.0,-0.000363204628,0.06937816
47,-0.6020508,-0.5996911,-0.54058325,-0.59256047,0.756347656,0.7594321,0.6837301,0.76024103,0.3125,0.312638372,0.3813447,0.31707883,0.0,-0.000388823915,0.011547333,0.0,-0.0002842431,-0.19861202,0.00106422522,0.00106422522,0.069957584
48,-0.598144531,-0.5971952,-0.54041654,-0.5879634,0.761230469,0.7619331,0.6779331,0.77289766,0.3071289,0.3097792,0.38234845,0.3137013,-0.00106422522,-0.00106422522,0.0111113805,0.00106422522,0.00106422522,-0.19815907,0.00106422522,0.00141896692,0.070506625
49,-0.59375,-0.596363246,-0.53875047,-0.58403355,0.7651367,0.763743341,0.67822456,0.7729812,0.3095703,0.312569618,0.37975115,0.31590635,-0.00106422522,-0.00106422522,0.0109434305,0.00212845043,0.00141896692,-0.1979535,0.00212845043,0.00153721415,0.0706924
50,-0.598144531,-0.5934818,-0.54092145,-0.583718,0.764160156,0.7615798,0.67509764,0.7712662,0.318359375,0.3157784,0.37768605,0.32061678,0.0,-0.00101766363,0.010966703,0.00106422522,0.000472988962,-0.1981238,0.00106422522,0.00122188823,0.070514955
51,-0.5859375,-0.5928468,-0.5318631,-0.5786262,0.756835938,0.7584172,0.6747962,0.7666099,0.31640625,0.315871447,0.3753152,0.3228784,-0.00106422522,-0.00106422522,0.010959554,-0.00106422522,-0.00106422522,-0.19838856,0.00106422522,0.00106422522,0.07002719
52,-0.5991211,-0.59475106,-0.5340096,-0.58537734,0.756835938,0.7585023,0.675445,0.7634358,0.3154297,0.314600378,0.3769395,0.31882873,-0.00106422522,-0.00106422522,0.011107308,0.0,-0.000703259546,-0.19873455,0.0,0.000256855943,0.06952107
53,-0.592285156,-0.5950603,-0.5370251,-0.58664083,0.7602539,0.761948645,0.67620236,0.7730682,0.3125,0.306038648,0.38075146,0.3128061,0.0,-0.000354741729,0.011385089,0.00106422522,0.00106422522,-0.19885252,-0.00106422522,-0.00106422522,0.06922395
54,-0.598144531,-0.593373,-0.5345605,-0.582262,0.767089844,0.7616326,0.6762948,0.7754384,0.291015625,0.301394373,0.37968218,0.31070969,0.0,0.0004033234,0.011935282,0.0,0.0004094987,-0.19909002,0.0,-0.000354741729,0.06920258
55,-0.586914063,-0.591508448,-0.54169494,-0.57868487,0.7558594,0.7585976,0.67639303,0.7638287,0.3071289,0.2998463,0.37579527,0.30801827,0.00106422522,0.00106422522,0.012188775,-0.00212845043,-0.00212845043,-0.19924156,0.0,0.0005031257,0.06943031
56,-0.5942383,-0.594793141,-0.53903776,-0.58172303,0.7583008,0.76051563,0.67830026,0.76879114,0.291015625,0.299818546,0.37735078,0.30849046,0.0,0.000354741729,0.012122217,0.0,-0.000709483458,-0.19936965,0.00106422522,0.00106422522,0.069708586
57,-0.5986328,-0.5997943,-0.5394423,-0.58951205,0.764648438,0.761806,0.67850703,0.7758511,0.30859375,0.3022507,0.37913284,0.30925247,0.0,0.000336036028,0.012086525,0.0,-0.000169652572,-0.19939424,0.0,0.001198114,0.070084
58,-0.605957031,-0.6014614,-0.5441622,-0.5949005,0.7602539,0.759306431,0.68135697,0.7711127,0.298339844,0.300620049,0.37695238,0.3071866,0.00106422522,0.00106422522,0.011880993,-0.00106422522,-0.00106422522,-0.19914366,0.00106422522,0.00106422522,0.07042784
59,-0.5986328,-0.5994129,-0.53968227,-0.5888326,0.7558594,0.758636,0.68185973,0.7622782,0.301269531,0.307888985,0.37907487,0.3116803,0.0,0.000501625938,0.011619327,-0.00106422522,-0.000354741729,-0.19890359,0.00212845043,0.00212845043,0.070367254
60,-0.598144531,-0.5966142,-0.5401331,-0.5897672,0.7607422,0.762156,0.677504,0.77108735,0.321777344,0.315032,0.37990662,0.31955445,-0.00106422522,-0.00106422522,0.011298117,0.00106422522,0.000945978041,-0.19846351,0.0,0.000709483458,0.06998494
61,-0.592285156,-0.592588842,-0.5387892,-0.5817113,0.767089844,0.7608879,0.67658377,0.7764683,0.3154297,0.310739845,0.37761658,0.31971323,0.0,-0.000354741729,0.011242216,0.00212845043,0.00212845043,-0.19823876,0.0,0.000236494481,0.06953712
62,-0.5888672,-0.594176769,-0.53582525,-0.5766572,0.753417969,0.7585121,0.6763499,0.76028866,0.3017578,0.307681531,0.37929887,0.31491724,0.0,-0.0002597222,0.011514421,0.0,0.000709483458,-0.1984645,0.0,7.88314937e-05,0.06926108
63,-0.6010742,-0.5982868,-0.53936255,-0.5917218,0.761230469,0.7583712,0.6750576,0.77177805,0.310546875,0.308126926,0.37942174,0.31294033,-0.00106422522,-0.00106422522,0.011772719,0.0,-0.0004963152,-0.19881807,0.0,-0.000394234463,0.06921706
64,-0.5996094,-0.5980292,-0.5394824,-0.5956704,0.7553711,0.7558828,0.67620295,0.7681684,0.306152344,0.309089184,0.37774733,0.31399044,0.00106422522,0.000354741729,0.01244641,-0.00106422522,-0.00106422522,-0.19946414,-0.00106422522,-0.00106422522,0.06931763
65,-0.5961914,-0.5935488,-0.537748,-0.5830014,0.75390625,0.756680965,0.67721033,0.7566537,0.312988281,0.311851352,0.37725726,0.31656957,0.00106422522,0.00118247245,0.012950621,-0.00212845043,-0.00141896692,-0.19978544,0.00106422522,0.00106422522,0.06942775
66,-0.5864258,-0.5946595,-0.5399421,-0.5737487,0.7602539,0.759062946,0.6723832,0.7665706,0.313476563,0.315376252,0.3796586,0.32180974,0.00212845043,0.0014583827,0.013108121,-0.00106422522,-0.00118247245,-0.19989741,0.0,0.000354741729,0.06947046
67,-0.6040039,-0.5992615,-0.5403763,-0.59398735,0.7602539,0.760508,0.6732918,0.7744447,0.320800781,0.316876739,0.3854971,0.32684934,0.00106422522,0.001195611,0.013021819,-0.00106422522,-0.001103641,-0.1998213,0.0,0.000118247241,0.06946485
68,-0.5991211,-0.5981913,-0.54023904,-0.5923702,0.762207031,0.7575717,0.6805016,0.7687313,0.314453125,0.309401631,0.38035163,0.32137161,0.00106422522,0.00106422522,0.012479078,-0.00106422522,-0.00106422522,-0.19953749,0.0,3.94157469e-05,0.06944665
69,-0.5961914,-0.5953932,-0.54017276,-0.5826212,0.75,0.7551281,0.67785263,0.75758564,0.296875,0.3087003,0.3813975,0.31361508,0.0,0.000354741729,0.012067724,0.0,-0.00105087983,-0.19932963,0.0,0.0007740302,0.069505125
70,-0.5917969,-0.59543705,-0.5382948,-0.58184093,0.7578125,0.757406,0.6788638,0.7682805,0.319824219,0.312861055,0.38254765,0.3158791,0.0,0.000118247241,0.01188894,-0.00106422522,-0.00106422522,-0.1992095,0.00212845043,0.00212845043,0.069559395
71,-0.5991211,-0.5969165,-0.54049236,-0.58721435,0.759277344,0.7584908,0.6769536,0.7696089,0.3100586,0.307249278,0.379449,0.3149908,0.0,0.000450908265,0.012034923,0.00106422522,-0.000354741729,-0.19921564,-0.00106422522,-0.00106422522,0.06960399
72,-0.5961914,-0.5983862,-0.5404542,-0.5851712,0.758789063,0.760317266,0.680277,0.7662096,0.298828125,0.310098737,0.38328883,0.3176102,0.00106422522,0.00106422522,0.012539174,-0.00106422522,-0.00118247245,-0.19942345,0.0,-0.00144005287,0.06966983
73,-0.6020508,-0.600015461,-0.54312176,-0.59044796,0.7636719,0.7651579,0.67962134,0.77433836,0.32421875,0.315117568,0.37868947,0.32290262,0.00106422522,0.00106422522,0.0127235195,-0.00212845043,-0.0014583827,-0.19958238,0.00106422522,0.00106422522,0.06969211
74,-0.5996094,-0.599256456,-0.5402973,-0.592246,0.7714844,0.7675852,0.6813755,0.7815221,0.311035156,0.31255874,0.38104585,0.32017726,0.00106422522,0.00106422522,0.012436237,-0.00106422522,-0.000486127537,-0.19936839,0.00106422522,0.00106422522,0.06961632
75,-0.598144531,-0.5960738,-0.5384843,-0.58590335,0.7661133,0.7656274,0.6843988,0.77670497,0.311523438,0.315123767,0.38485956,0.3217525,0.0,0.000354741729,0.01210684,0.00106422522,0.00106422522,-0.19908042,0.00106422522,-0.00145296031,0.06954198
76,-0.5908203,-0.5950129,-0.5391613,-0.57889277,0.7631836,0.766114056,0.6789481,0.77459824,0.321289063,0.3163043,0.38227972,0.32508707,0.0,0.000118247241,0.011852777,0.0,0.000354741729,-0.19883038,-0.00212845043,-0.00212845043,0.06954623
77,-0.598144531,-0.5972634,-0.5374057,-0.58500075,0.76953125,0.765950739,0.68102676,0.7775941,0.3125,0.3175116,0.38500923,0.32429665,0.0,0.000452959735,0.011904977,0.0,-0.000519146735,-0.19884227,0.00212845043,0.00212845043,0.06968039
78,-0.5986328,-0.598501861,-0.54068005,-0.59332097,0.762207031,0.7655708,0.6862538,0.77186966,0.323730469,0.3192161,0.38348597,0.32314494,0.00106422522,0.00106422522,0.012217002,-0.00106422522,-0.00106422522,-0.19917208,0.00106422522,0.0007094836,0.06986007
79,-0.5996094,-0.594520152,-0.5377618,-0.5847614,0.7685547,0.7613752,0.6852754,0.7750546,0.31640625,0.313762158,0.3832171,0.3196768,0.0,0.00123624678,0.012407551,0.0,-0.00158539007,-0.19941923,-0.00106422522,0.0005912362,0.06965204
80,-0.5854492,-0.5946577,-0.5367448,-0.5763716,0.75,0.7599766,0.6779231,0.75936204,0.305664063,0.3101538,0.38399997,0.3153385,0.00106422522,0.00106422522,0.0123924855,-0.00212845043,-0.00212845043,-0.19948041,0.00212845043,0.000197078727,0.0690867
81,-0.6040039,-0.5974705,-0.5383546,-0.5898364,0.7685547,0.763905,0.6780993,0.77298385,0.311035156,0.315135926,0.38487303,0.3235613,0.00106422522,0.000354741729,0.012225681,-0.00106422522,-0.0007094836,-0.19936763,-0.00212845043,-0.0013532741,0.06863706
82,-0.59375,-0.596455038,-0.5359493,-0.5857471,0.7631836,0.7608199,0.67502433,0.7801893,0.32421875,0.310937256,0.3860425,0.32630947,-0.00106422522,0.000472988962,0.012165069,0.00106422522,-0.0005912362,-0.19932187,-0.00212845043,-0.0008058331,0.06858715
83,-0.598144531,-0.5962793,-0.5389259,-0.5841822,0.7553711,0.757187366,0.6727872,0.7558809,0.293457031,0.3062825,0.38761097,0.31394267,0.00212845043,0.00122188823,0.012326136,-0.00212845043,-0.001261304,-0.19935697,0.00106422522,-0.000268611038,0.06875271
84,-0.5942383,-0.5945931,-0.5382668,-0.58344144,0.7553711,0.7572786,0.6796557,0.766136,0.314453125,0.308148861,0.38641888,0.3126928,0.00106422522,0.00106422522,0.012505625,-0.00106422522,0.0006437905,-0.19918586,-0.00106422522,-0.00106422522,0.06894079
85,-0.5932617,-0.594356537,-0.53480786,-0.5806527,0.759277344,0.758448362,0.6790427,0.7686947,0.303710938,0.306655079,0.38768667,0.31457445,0.0,0.000354741729,0.012360104,0.004256901,0.004256901,-0.19891931,0.0,-0.000354741729,0.069135025
86,-0.595214844,-0.5950915,-0.5360319,-0.58880746,0.758789063,0.759001,0.67703074,0.77036065,0.308105469,0.305831641,0.38832748,0.31152624,0.0,0.000411214685,0.012130859,0.0,0.002522219,-0.19886991,0.0,-0.000118247241,0.06929683
87,-0.5957031,-0.5930579,-0.5373762,-0.5800936,0.7597656,0.760324538,0.67845434,0.76830983,0.302734375,0.308486849,0.38600796,0.3112237,0.00106422522,0.00106422522,0.012127308,-0.00319267553,-0.00319267553,-0.19904698,0.0,0.0007057255,0.06983828
88,-0.5883789,-0.5967745,-0.53721946,-0.57991344,0.762207031,0.765648544,0.6811372,0.77025235,0.316894531,0.314743,0.38641256,0.31739372,0.0,0.000354741729,0.0121031245,0.00106422522,-0.0010642251,-0.19933268,0.00212845043,0.00212845043,0.07059203
89,-0.6088867,-0.5985017,-0.54145175,-0.5974117,0.774414063,0.7677488,0.68087465,0.78512555,0.318847656,0.319107056,0.38221368,0.3259764,0.0,0.000328482449,0.012003191,-0.00106422522,-0.0014189668,-0.19948879,0.00212845043,0.00212845043,0.07083386
90,-0.58984375,-0.593218,-0.54029316,-0.5833825,0.7631836,0.7642171,0.6827543,0.7721337,0.323730469,0.3194224,0.38226444,0.32680348,0.00106422522,0.00106422522,0.0117800515,-0.00212845043,-0.000472988933,-0.19919246,0.00212845043,0.00177370862,0.07042772
91,-0.5913086,-0.592107832,-0.5383616,-0.57370126,0.76171875,0.765318453,0.68431556,0.7666087,0.3154297,0.3170861,0.38358384,0.32313287,-0.00106422522,-0.00106422522,0.011602557,0.00212845043,0.00212845043,-0.1988409,0.00106422522,0.000236494467,0.06977368
92,-0.5917969,-0.5940164,-0.5376374,-0.5830688,0.770019531,0.7676387,0.67674756,0.77906936,0.31640625,0.317446679,0.38284063,0.32142326,0.0,-0.000354741729,0.0117009105,0.0,0.000709483458,-0.19877915,-0.00212845043,-0.00027591025,0.06934757
93,-0.598144531,-0.596117437,-0.53939617,-0.5883878,0.7675781,0.7632038,0.67727804,0.77749896,0.318847656,0.316427559,0.38304055,0.32265824,0.0,0.000609933166,0.012005555,0.0,-0.00100951968,-0.19899371,0.00106422522,0.0006175134,0.06931589
94,-0.5961914,-0.5969806,-0.53976834,-0.5852628,0.754394531,0.7560289,0.67906487,0.76237863,0.312988281,0.317227155,0.38296083,0.32491705,0.00106422522,0.00106422522,0.012268553,-0.00212845043,-0.00212845043,-0.19935434,0.00106422522,0.00106422522,0.069526605
95,-0.5986328,-0.600849,-0.54095036,-0.5876376,0.7504883,0.754451036,0.6785192,0.7552722,0.322265625,0.316191584,0.38392276,0.3243052,0.00106422522,0.000354741729,0.012167238,-0.00106422522,-0.00106422522,-0.19949722,0.0,0.000354741729,0.069610156
96,-0.6069336,-0.6019757,-0.5477425,-0.5939547,0.756835938,0.757831335,0.6752462,0.7686749,0.309082031,0.309010476,0.38600358,0.31348673,-0.00106422522,0.000118247233,0.011881132,0.0,-0.00103253056,-0.19979885,0.0,0.000118247241,0.06953405
97,-0.598144531,-0.601211965,-0.54162914,-0.5873425,0.762207031,0.7597719,0.6774103,0.77024925,0.3017578,0.302873284,0.38513356,0.30239454,0.00106422522,0.000748899241,0.012008002,-0.00212845043,-0.00212845043,-0.20001264,0.0,3.94157469e-05,0.069447294
98,-0.6035156,-0.6037243,-0.5445319,-0.5900499,0.759277344,0.75911665,0.67286766,0.7651386,0.297851563,0.3050593,0.3859205,0.3054514,0.00106422522,0.0009591165,0.012551614,-0.00106422522,-0.00212845043,-0.2005084,0.0,1.31385823e-05,0.06943124
99,-0.6064453,-0.6029341,-0.5458596,-0.5971895,0.7583008,0.761014163,0.6719818,0.7689689,0.314453125,0.317995042,0.3832508,0.32293895,0.00106422522,0.00102918886,0.012775956,-0.00319267553,-0.00248319213,-0.20079635,0.0,0.000398678938,0.06956229
100,-0.5986328,-0.5974624,-0.536757,-0.58672196,0.765625,0.7614839,0.6810637,0.77259344,0.334472656,0.3205166,0.38376266,0.33194277,0.00106422522,0.00106422522,0.012595719,-0.00212845043,-0.00212845043,-0.2008319,0.00106422522,0.00106422522,0.069770634
101,-0.5908203,-0.5936854,-0.5388923,-0.5778495,0.7578125,0.758548,0.68095326,0.76893085,0.309082031,0.3114287,0.39354977,0.31853846,0.0,0.00107055926,0.012404868,0.0,-0.002365609,-0.20065455,0.0,0.001250602,0.06987029
102,-0.592773438,-0.5930774,-0.53568006,-0.5832885,0.756347656,0.758545935,0.6776206,0.76557726,0.3046875,0.3087249,0.39254,0.30954573,0.00106422522,0.00106422522,0.01226978,-0.00319267553,-0.00319267553,-0.20016718,0.00106422522,0.00106422522,0.06981106
103,-0.592773438,-0.592549264,-0.5301048,-0.5798743,0.7607422,0.7637536,0.6790493,0.7684523,0.3100586,0.315636158,0.39061043,0.31634662,0.0,0.00106201519,0.012183699,0.0,-0.00304197031,-0.19985634,0.0,0.000354741729,0.069652855
104,-0.5917969,-0.5949774,-0.53560346,-0.5833405,0.771972656,0.767768145,0.67526215,0.77747977,0.328125,0.3270545,0.3862909,0.33258316,0.00106422522,0.00106422522,0.011886222,-0.00212845043,-0.00212845043,-0.19925666,0.0,0.000118247241,0.06951692
105,-0.600585938,-0.593996346,-0.5346142,-0.58977973,0.7675781,0.7612938,0.6748115,0.7796601,0.337402344,0.327442646,0.38412985,0.34031442,-0.00106422522,-0.00106422522,0.011612802,0.00106422522,0.00106422522,-0.19893147,0.0,0.000840266352,0.069599286
106,-0.5864258,-0.589437544,-0.5351104,-0.5762039,0.748535156,0.7545784,0.6718424,0.7514949,0.3178711,0.315365,0.38588092,0.327565,0.0,-0.000354741729,0.0117009105,0.0,0.000354741729,-0.19886759,0.00212845043,0.00212845043,0.069797724
107,-0.5878906,-0.5911732,-0.5415525,-0.5740653,0.75390625,0.757711,0.67203766,0.7642479,0.30078125,0.313780516,0.3864413,0.31779718,0.0,0.000593779143,0.012005555,0.0,-0.0006687887,-0.19905375,0.0,0.000709483458,0.06971928
108,-0.5961914,-0.595658,-0.54059964,-0.58729064,0.764648438,0.7590807,0.674188,0.7792003,0.3251953,0.318135172,0.39383295,0.32319456,0.00106422522,0.00106422522,0.012295628,-0.00106422522,-0.00106422522,-0.19962443,0.0,-0.0005130558,0.06940587
109,-0.5996094,-0.600408137,-0.5434113,-0.5930766,0.7548828,0.756933153,0.67409176,0.7578891,0.3154297,0.316168755,0.3845773,0.32557297,0.00106422522,0.000354741729,0.012251758,-0.00212845043,-0.00141896692,-0.19996695,-0.00106422522,-0.00106422522,0.069279015
110,-0.605957031,-0.599224567,-0.54564375,-0.59315205,0.756835938,0.758984268,0.67425543,0.765895,0.3149414,0.3122581,0.3879447,0.31993374,-0.00106422522,0.000472988962,0.012181176,-0.00106422522,-0.00189195585,-0.20029178,0.00106422522,0.00106422522,0.06943027
111,-0.5913086,-0.595574856,-0.53981465,-0.58159494,0.7631836,0.764225245,0.6746364,0.77470934,0.305664063,0.312582135,0.38839874,0.3181207,0.00212845043,0.00122188823,0.01234292,-0.00319267553,-0.00204961887,-0.20034617,0.0,0.000354741729,0.069538444
112,-0.5961914,-0.596962452,-0.5404712,-0.5837778,0.7705078,0.764995635,0.67374533,0.77837616,0.319824219,0.314154983,0.38591012,0.3188783,0.00106422522,0.00106422522,0.0122127235,-0.00106422522,-0.00106422522,-0.19997522,0.0,0.000118247241,0.06950295
113,-0.5991211,-0.5992153,-0.5398964,-0.5898901,0.7602539,0.758742034,0.67378926,0.77261937,0.3100586,0.309308171,0.39300224,0.31550035,0.0,-0.000225395488,0.011628675,0.0,-0.000354741729,-0.1996503,0.0,0.0005049858,0.06957533
114,-0.6015625,-0.600454569,-0.5405711,-0.5903045,0.750976563,0.7558437,0.674498,0.7611932,0.303710938,0.310947776,0.38950732,0.3163708,-0.00212845043,-0.00212845043,0.011097293,0.0,-0.0004700888,-0.19938034,0.00106422522,0.00106422522,0.06976669
115,-0.600585938,-0.602495253,-0.54389083,-0.5927037,0.7578125,0.7560169,0.67314637,0.7668986,0.319824219,0.3149123,0.38848105,0.3206587,0.0,-0.000688879052,0.011571477,-0.00106422522,-0.00106422522,-0.19938889,0.0,0.00121809414,0.07001332
116,-0.6064453,-0.600083053,-0.5426071,-0.59339535,0.754394531,0.7567257,0.6723478,0.7677545,0.313964844,0.31542,0.38633716,0.32176307,0.00319267553,0.00319267553,0.012691309,-0.00106422522,-0.00106422522,-0.1994547,0.00106422522,0.00106422522,0.07021521
117,-0.5913086,-0.5960238,-0.54046065,-0.58323425,0.7597656,0.7605427,0.6741916,0.76512414,0.3173828,0.318030626,0.3874985,0.32702744,0.00106422522,0.00106422522,0.012844346,-0.00106422522,-0.00106422522,-0.19946004,0.00106422522,0.00141896692,0.070149854
118,-0.5966797,-0.594345152,-0.53649294,-0.5844633,0.7651367,0.764093637,0.67624754,0.77632385,0.321289063,0.313855261,0.384828,0.3259513,0.0,0.000354741729,0.012142562,0.0,-0.00146975322,-0.19939779,0.00212845043,0.00212845043,0.069802165
119,-0.590332031,-0.591832459,-0.5343321,-0.58144987,0.766601563,0.7633242,0.67757624,0.7742866,0.3022461,0.3123007,0.38347206,0.3178028,0.0,0.000118247241,0.011800536,-0.00212845043,-0.00212845043,-0.19931994,0.0,0.0007570034,0.06935849
120,-0.5908203,-0.5903439,-0.5366488,-0.5772438,0.759277344,0.7607891,0.6751632,0.7671215,0.320800781,0.3160143,0.38521856,0.31911084,0.0,3.94157469e-05,0.011784248,0.0,-0.0011332666,-0.19896574,-0.00212845043,-0.00212845043,0.06909268
121,-0.5883789,-0.5945678,-0.5340457,-0.5798873,0.7597656,0.759944,0.6734548,0.769709,0.3149414,0.313996941,0.38585046,0.32228607,0.0,1.31385823e-05,0.011853877,0.00106422522,0.00106422522,-0.19871159,0.00106422522,0.00106422522,0.06915011
122,-0.604980469,-0.5954874,-0.53989744,-0.5888845,0.759277344,0.758523,0.6746247,0.7706737,0.311035156,0.3149521,0.38507295,0.32185996,0.0,0.0003931485,0.012138869,0.00106422522,0.000354741729,-0.19869484,0.0,0.002343589,0.06939395
123,-0.586914063,-0.5944919,-0.53809184,-0.5794431,0.756347656,0.756421745,0.6734533,0.76437646,0.319824219,0.311527,0.38180304,0.32006913,0.00106422522,0.00106422522,0.012333408,-0.00106422522,-0.0005912362,-0.19886659,0.00106422522,0.00106422522,0.06936265
124,-0.6010742,-0.597578049,-0.5398981,-0.5861304,0.754394531,0.7566979,0.6749499,0.7628747,0.2998047,0.310710818,0.38191867,0.32062468,0.00106422522,0.00106422522,0.012442162,-0.00106422522,-0.000197078756,-0.1990338,-0.00106422522,-0.000354741729,0.069067776
125,-0.597167969,-0.5963281,-0.5429333,-0.58808273,0.759277344,0.758417547,0.6747033,0.77020735,0.320800781,0.31336844,0.38337556,0.3213259,0.0,0.00101376872,0.012348702,0.00106422522,-6.569291e-05,-0.19902326,-0.00106422522,-0.00106422522,0.069057845
126,-0.5942383,-0.596236944,-0.5390923,-0.583185,0.759277344,0.7578514,0.67741054,0.7666444,0.30859375,0.310022563,0.3818158,0.3157335,0.00106422522,0.00106422522,0.011931043,-0.00106422522,-0.00106422522,-0.19915107,0.0,-0.000419797,0.06937645
127,-0.598144531,-0.5944162,-0.5398081,-0.5867841,0.7558594,0.758151,0.6766273,0.76659966,0.308105469,0.309721082,0.37814453,0.3142446,-0.00106422522,-0.00106422522,0.011710627,0.0,-0.000354741729,-0.19930612,0.00106422522,0.00106422522,0.069975585
128,-0.5888672,-0.590554059,-0.53419375,-0.57776374,0.7607422,0.757925332,0.680027,0.7693699,0.311035156,0.3096206,0.3809344,0.31378475,0.0,-0.0009894412,0.011996447,0.0,-0.00147151016,-0.19998261,0.0,0.002274924,0.07053486
129,-0.5883789,-0.5917081,-0.5350042,-0.57516783,0.7548828,0.7586639,0.6779407,0.76269066,0.308105469,0.306494623,0.38212374,0.31087014,0.00106422522,0.00106422522,0.012344205,-0.004256901,-0.004256901,-0.20042019,0.00319267553,0.00319267553,0.07071131
130,-0.5961914,-0.596487343,-0.5353538,-0.5856147,0.7631836,0.76281637,0.68098354,0.773733,0.3017578,0.304476053,0.37936515,0.30915388,0.00106422522,0.00106422522,0.012310093,-0.00212845043,-0.00248319213,-0.20024894,0.00106422522,0.00106422522,0.07051789
131,-0.6015625,-0.599708,-0.54428744,-0.5913221,0.766601563,0.763875,0.681454,0.77646685,0.305175781,0.309011549,0.3791867,0.31322894,0.00106422522,-0.0008331072,0.011882241,-0.00106422522,-0.0008277308,-0.19982415,0.0,0.000297066581,0.0700023
132,-0.6010742,-0.6012699,-0.5461771,-0.59145576,0.762207031,0.7648789,0.68017834,0.77195066,0.3173828,0.312150985,0.3791868,0.32008126,-0.00212845043,-0.00212845043,0.011099344,0.00106422522,0.000433573179,-0.19907366,0.00106422522,0.00106422522,0.06945453
133,-0.603027344,-0.601953268,-0.54555684,-0.5937689,0.7685547,0.7658646,0.6816218,0.7769849,0.3100586,0.313197464,0.37964895,0.32068074,-0.00106422522,-0.00106422522,0.010963992,0.00106422522,0.000144524383,-0.19875863,-0.00106422522,-0.000354741729,0.06902612
134,-0.6015625,-0.597461,-0.54591787,-0.5899224,0.764160156,0.763263464,0.6748156,0.7739364,0.3173828,0.313383549,0.37901223,0.31797358,0.00106422522,0.00106422522,0.011774306,-0.00106422522,4.81747957e-05,-0.19897236,-0.00106422522,-0.00106422522,0.068861574
135,-0.5888672,-0.5940104,-0.5378136,-0.57976216,0.7597656,0.7571881,0.6750122,0.7670454,0.3095703,0.308562756,0.37836805,0.31469485,0.0,0.00165623031,0.012319592,0.00106422522,-0.0003386835,-0.19930522,0.0,-0.000354741729,0.06896963
136,-0.5957031,-0.5938368,-0.538246,-0.5824601,0.748535156,0.7563023,0.6740978,0.7561414,0.302734375,0.3069558,0.3790221,0.31275183,0.00106422522,0.00106422522,0.012515482,-0.00212845043,-0.00188660307,-0.19969487,0.0,-0.000118247241,0.06919934
137,-0.5917969,-0.5960576,-0.5376411,-0.5847087,0.7631836,0.762191951,0.6749551,0.76983905,0.3095703,0.307233959,0.37871104,0.3125231,0.00106422522,0.00106422522,0.012564842,-0.00319267553,-0.00133835117,-0.19978559,0.0,0.0007200642,0.0695435
138,-0.602539063,-0.5961468,-0.5381316,-0.5880245,0.767089844,0.7659455,0.67846286,0.7830624,0.305175781,0.3063501,0.37848192,0.31151617,0.0,0.00151243876,0.0126627125,0.00106422522,-0.0008008588,-0.19970007,0.00212845043,0.00212845043,0.06984196
139,-0.58984375,-0.5947117,-0.53669024,-0.5826147,0.7685547,0.7658946,0.67841285,0.7725223,0.306640625,0.308496922,0.38042715,0.31314358,0.00212845043,0.00212845043,0.012831718,-0.00212845043,-0.00133117812,-0.19961973,0.00106422522,0.0007094836,0.06965174
140,-0.598144531,-0.5947216,-0.5394043,-0.58112115,0.7631836,0.76425004,0.6772863,0.7701746,0.3125,0.3101891,0.37798604,0.31609696,0.00106422522,0.00141896692,0.0128694,-0.00106422522,-0.0011532096,-0.19907397,-0.00106422522,-0.00106422522,0.06912969
141,-0.5913086,-0.5947249,-0.53888375,-0.58172035,0.7636719,0.7633763,0.6779973,0.7755551,0.3095703,0.3114042,0.37808493,0.31701866,0.00106422522,0.00106422522,0.012658778,-0.00106422522,0.00032508024,-0.19863433,0.0,-0.00189121463,0.06848651
142,-0.598144531,-0.5979812,-0.53820974,-0.5853149,0.762207031,0.7599926,0.6762579,0.7726952,0.314453125,0.31506443,0.3777466,0.3199545,0.0,0.000354741729,0.01222897,0.00319267553,0.001527327,-0.19839352,-0.00212845043,-0.00212845043,0.06801246
143,-0.6010742,-0.5964625,-0.5411739,-0.5907745,0.754394531,0.7564233,0.67782485,0.7610009,0.319335938,0.31319204,0.37890717,0.3209606,0.0,0.0003926374,0.0121535845,0.00106422522,0.000509109,-0.19852993,-0.00212845043,-0.00212845043,0.06808731
144,-0.590332031,-0.591724455,-0.53452134,-0.5834279,0.7548828,0.7588143,0.6760884,0.7641186,0.305175781,0.312079638,0.3791695,0.32081658,0.00106422522,0.00106422522,0.012610416,-0.00106422522,-0.000894522236,-0.19930252,0.0,-0.000709483458,0.06855529
145,-0.5883789,-0.588680267,-0.53450423,-0.57407457,0.7651367,0.758960247,0.67571294,0.7753141,0.3178711,0.312848181,0.37894204,0.32031646,0.00106422522,0.00141896692,0.012916304,-0.00212845043,-0.001717141,-0.19984114,0.0,-0.000372228853,0.06905939
146,-0.5859375,-0.590106964,-0.5351314,-0.57613754,0.7529297,0.756242,0.6777854,0.7612586,0.30859375,0.3091981,0.3816715,0.31508413,0.00212845043,0.00212845043,0.01274056,-0.00212845043,-0.00199134741,-0.20023635,-0.00106422522,-0.00106422522,0.06931225
147,-0.5957031,-0.594163239,-0.534398,-0.5888846,0.756835938,0.7594049,0.67592156,0.7633528,0.306152344,0.307818651,0.3794582,0.31415954,0.0,0.000709483458,0.012395796,-0.00212845043,-0.00212845043,-0.20020756,0.00106422522,0.000709483458,0.06968949
148,-0.5966797,-0.5919346,-0.53720695,-0.5856372,0.7651367,0.761924,0.6771798,0.778151,0.308105469,0.303452581,0.3805151,0.31004003,0.0,0.0003110785,0.012144098,0.0,-0.00255518826,-0.1999831,0.00212845043,0.00165546138,0.07014774
149,-0.584960938,-0.589238644,-0.5375278,-0.5760398,0.761230469,0.759020269,0.6765408,0.7684266,0.2944336,0.298090965,0.3808972,0.29882875,0.00106422522,0.00106422522,0.012160067,-0.00319267553,-0.00319267553,-0.19981503,0.00212845043,0.000906562258,0.07006829
150,-0.5908203,-0.5901303,-0.53730136,-0.5768902,0.75390625,0.757238567,0.6752161,0.7644905,0.296386719,0.303790718,0.3798405,0.30371487,0.0,0.00131153781,0.012041703,0.0,-0.00258295727,-0.1992216,-0.00106422522,-0.00106422522,0.069535255
151,-0.590332031,-0.593845546,-0.5406672,-0.57998526,0.758789063,0.757295668,0.67552805,0.76837176,0.316894531,0.3157818,0.38097784,0.32000265,0.00106422522,0.00106422522,0.011723762,-0.00106422522,-0.00106422522,-0.19882613,0.0,-0.00164151157,0.06905977
152,-0.6010742,-0.599153,-0.54355586,-0.5922154,0.7558594,0.7589423,0.67576814,0.7650403,0.326660156,0.322545767,0.37957004,0.32981047,-0.00212845043,0.0009779341,0.011350235,0.00212845043,0.00212845043,-0.19837981,-0.00106422522,-0.00106422522,0.06892244
153,-0.602539063,-0.5984807,-0.5435981,-0.5931737,0.7636719,0.7594912,0.6753832,0.7732695,0.3251953,0.316825151,0.37772802,0.32637313,0.00106422522,0.00106422522,0.011317839,0.0,0.000709483458,-0.19829077,0.0,-0.000862801156,0.06882941
154,-0.59375,-0.594675839,-0.5468016,-0.57759404,0.7558594,0.7541403,0.6779119,0.76138246,0.302734375,0.309709936,0.37880048,0.31631595,0.0,0.0003086016,0.011641955,0.0,0.000510014,-0.19846065,-0.00106422522,-0.00106422522,0.06868147
155,-0.5917969,-0.599266946,-0.5445452,-0.5763304,0.7470703,0.754309833,0.6776885,0.75383323,0.3095703,0.3127093,0.38132766,0.31763685,-0.00106422522,-0.00106422522,0.011784693,0.00212845043,0.00212845043,-0.19860482,-0.00106422522,-0.000354741729,0.068959706
156,-0.6113281,-0.6045408,-0.5431265,-0.60376227,0.76171875,0.757133245,0.6778812,0.77102256,0.318847656,0.313871861,0.3805341,0.3222304,0.00106422522,0.00106422522,0.01185354,-0.00212845043,-0.00212845043,-0.19862539,0.00106422522,0.0005912362,0.06954986
157,-0.603027344,-0.60060215,-0.5440474,-0.5930362,0.7553711,0.758074343,0.6772113,0.764814,0.3100586,0.3149104,0.379488,0.3212825,0.0,0.000354741729,0.01182428,0.0,-0.000709483458,-0.19855537,0.00106422522,0.00106422522,0.0698643
158,-0.5942383,-0.595708549,-0.53873396,-0.5817404,0.76171875,0.76131773,0.6779514,0.76906395,0.320800781,0.320302159,0.37958422,0.3252132,0.0,-0.0006214495,0.011577443,0.0,0.00122354762,-0.19841947,0.0,0.000354741729,0.06974018
159,-0.592285156,-0.59456563,-0.53924257,-0.5798062,0.764160156,0.7628872,0.679282,0.77782786,0.3251953,0.3159145,0.37926173,0.3245049,-0.00106422522,-0.00106422522,0.011528042,0.00212845043,0.00212845043,-0.19834962,0.0,0.000118247241,0.069642656
160,-0.5957031,-0.595812261,-0.5343649,-0.58526915,0.7631836,0.760806143,0.67435145,0.7676582,0.3022461,0.307290524,0.37924752,0.3135269,0.0,-0.000371097121,0.011884959,0.0,0.00114181219,-0.19853136,0.0,0.000458609255,0.069747895
161,-0.597167969,-0.5968788,-0.5380507,-0.58641297,0.756347656,0.760600746,0.67712337,0.76737136,0.303710938,0.3071828,0.38119683,0.3144142,0.00106422522,0.00106422522,0.012099543,-0.00106422522,-0.00106422522,-0.19876018,0.00106422522,0.00106422522,0.06984967
162,-0.59765625,-0.5978854,-0.53862804,-0.58721954,0.764648438,0.759555757,0.67164457,0.7732403,0.310546875,0.302101284,0.3818876,0.31638405,0.0,0.000354741729,0.01215422,0.0,-0.00169469859,-0.19922608,0.00106422522,0.00106422522,0.069832586
163,-0.5991211,-0.598058164,-0.5375882,-0.5888735,0.753417969,0.7551384,0.6717606,0.7634412,0.288574219,0.3039882,0.3796537,0.3111849,0.0,0.000271925615,0.0123203285,-0.00106422522,-0.00106422522,-0.19950886,0.0,0.000354741729,0.06961695
164,-0.597167969,-0.595674336,-0.543717,-0.5855133,0.7524414,0.7546425,0.67116535,0.7633113,0.321289063,0.30998826,0.38258842,0.31744036,0.00106422522,0.00106422522,0.01285342,-0.00106422522,-0.00141896692,-0.19985689,0.0,0.000118247241,0.06933968
165,-0.5917969,-0.595530748,-0.53742623,-0.58223426,0.756347656,0.755779266,0.67169017,0.7670176,0.3046875,0.308733076,0.38138983,0.31760854,0.00212845043,0.00141896692,0.013181599,-0.00212845043,-0.00153721415,-0.19998777,0.0,-0.000336934,0.069114685
166,-0.5991211,-0.5951574,-0.5383846,-0.58435416,0.756347656,0.7553444,0.67035496,0.7641378,0.311523438,0.311081618,0.38025272,0.3140188,0.00106422522,0.00118247245,0.013124036,-0.00106422522,-0.00122188823,-0.19988917,-0.00106422522,-0.00106422522,0.069011
167,-0.5908203,-0.59503293,-0.5405195,-0.5814805,0.75390625,0.7545484,0.66810656,0.76534814,0.312988281,0.309260279,0.3805728,0.31512338,0.00106422522,0.001103641,0.012889494,-0.00106422522,-0.00111677952,-0.19971378,0.0,-8.781755e-05,0.06930377
168,-0.5991211,-0.5988977,-0.5383052,-0.58648187,0.754394531,0.7539575,0.6765253,0.75822705,0.303710938,0.307025552,0.37937194,0.3123532,0.00106422522,0.0003678803,0.011933279,-0.00106422522,-0.000372259849,-0.19912207,0.00212845043,0.00212845043,0.069809616
169,-0.602539063,-0.600185931,-0.54094183,-0.5947979,0.7529297,0.7578296,0.67484534,0.76292765,0.308105469,0.3110007,0.38067785,0.31574595,-0.00106422522,-0.0009415985,0.011004933,0.00106422522,0.000585396832,-0.19871823,0.0,0.00236962759,0.070152074
170,-0.5991211,-0.5960581,-0.5411782,-0.5877202,0.766601563,0.759608567,0.676238,0.77425045,0.3178711,0.3133023,0.38115463,0.31906882,-0.00212845043,-0.0013780914,0.010431636,0.00106422522,0.00106422522,-0.19848931,0.00106422522,0.00106422522,0.07020365
171,-0.5888672,-0.593054533,-0.5377733,-0.5753438,0.754394531,0.756458044,0.67650366,0.7645706,0.311035156,0.31016326,0.38229638,0.3164462,-0.00106422522,-0.0004593638,0.010683693,0.0,-2.30436563e-05,-0.19853218,0.00106422522,0.00106422522,0.070005864
172,-0.5942383,-0.596936166,-0.5378357,-0.5841739,0.7553711,0.758825839,0.6799634,0.7656023,0.306152344,0.310419,0.38118967,0.3160345,0.00106422522,0.00106422522,0.01146046,-0.00212845043,-0.00212845043,-0.19813028,0.0,0.000354741729,0.069748074
173,-0.6035156,-0.599043846,-0.53905094,-0.5945551,0.764648438,0.7612427,0.676777,0.77550125,0.3149414,0.31131804,0.38247496,0.31801456,0.0,0.00069905055,0.011587559,0.00319267553,0.00106422522,-0.19768873,0.0,0.000118247241,0.06936621
174,-0.5966797,-0.5984443,-0.53476655,-0.5883724,0.7602539,0.7597697,0.681025,0.7678343,0.30859375,0.311454982,0.38287884,0.31900328,-0.00106422522,-0.00106422522,0.011326098,0.00212845043,0.00141896692,-0.19749081,0.0,-0.0007186591,0.06897431
175,-0.5996094,-0.600685835,-0.5438318,-0.58910197,0.7578125,0.761069059,0.6810503,0.76678187,0.314453125,0.309873,0.38493305,0.31673735,0.0,-0.000354741729,0.011424307,0.00106422522,0.00106422522,-0.19767843,-0.00212845043,-0.00212845043,0.068940565
176,-0.6040039,-0.598666131,-0.54420614,-0.58868897,0.765625,0.7626415,0.679448,0.7763729,0.303710938,0.3067415,0.38214234,0.31322128,0.0,0.0005444672,0.012002102,0.0,0.000216760367,-0.19828747,0.0,-0.00134376192,0.0692468
177,-0.5913086,-0.599946,-0.5438804,-0.5840458,0.761230469,0.763491154,0.68122566,0.76752543,0.306640625,0.314975023,0.38065094,0.31836003,0.00106422522,0.00106422522,0.012337005,-0.00106422522,-0.00106422522,-0.19865718,0.00106422522,0.00106422522,0.06932726
178,-0.6098633,-0.6010237,-0.5478495,-0.5967574,0.766601563,0.7662158,0.6784916,0.7727883,0.331542969,0.3227651,0.38140866,0.3293472,0.00106422522,0.00106422522,0.012346482,0.0,-0.000354741729,-0.19895843,-0.00106422522,-0.000354741729,0.069066994
179,-0.5932617,-0.5948725,-0.53676254,-0.5843443,0.7685547,0.7614274,0.67807186,0.78049535,0.321777344,0.320316225,0.37984243,0.3295366,0.0,0.000354741729,0.012216142,0.0,-0.000118247241,-0.19901901,-0.00106422522,-0.000118247233,0.06904745
180,-0.590332031,-0.591194451,-0.53700966,-0.57520735,0.7495117,0.7555995,0.6740505,0.74853593,0.31640625,0.3155937,0.38179278,0.32043326,0.0,0.0003898192,0.012114863,0.0,-0.0008703603,-0.19911537,0.00106422522,0.00106422522,0.069375664
181,-0.5883789,-0.59289813,-0.5344897,-0.57762074,0.7558594,0.7604928,0.6737043,0.76734126,0.3100586,0.3123919,0.38083333,0.31630415,0.00106422522,0.00106422522,0.012137527,-0.00212845043,-0.00212845043,-0.19913101,0.0,0.00138826168,0.069733925
182,-0.5991211,-0.5942798,-0.53545976,-0.5865481,0.770019531,0.7635887,0.67509234,0.78127795,0.311523438,0.310836345,0.37980357,0.31389645,0.0,0.000354741729,0.01208587,0.0,-0.0009082796,-0.19880533,0.00106422522,0.00106422522,0.06990102
183,-0.5908203,-0.5937638,-0.5394414,-0.58083403,0.7602539,0.763644159,0.6764967,0.7669317,0.30859375,0.306899875,0.3776321,0.31168532,0.0,0.000118247241,0.012006722,0.00212845043,0.00212845043,-0.1985079,0.0,0.00173689588,0.06990375
184,-0.5961914,-0.5957077,-0.5402534,-0.5842989,0.767089844,0.7618723,0.68075794,0.77609396,0.301269531,0.3098195,0.3805747,0.31734663,0.0,0.000466742174,0.012138981,0.00106422522,0.0007094836,-0.19860381,0.00319267553,0.00319267553,0.069744065
185,-0.597167969,-0.5960302,-0.5413448,-0.5853141,0.7548828,0.7573754,0.68101054,0.7647844,0.321289063,0.312094778,0.37918785,0.3210202,0.00106422522,0.00106422522,0.012384092,-0.00106422522,-0.000472988933,-0.19892617,-0.00106422522,0.000354741671,0.06949184
186,-0.595214844,-0.597602546,-0.5408158,-0.5868764,0.7553711,0.7579923,0.68360716,0.7657597,0.305175781,0.308784217,0.38008192,0.3166694,0.00106422522,0.00106422522,0.012572671,-0.00106422522,-0.00122188823,-0.199451,-0.00106422522,0.000118247233,0.069339134
187,-0.6015625,-0.5968246,-0.5413762,-0.5892123,0.761230469,0.7595,0.6828954,0.7718683,0.309082031,0.305890322,0.38139245,0.3114187,0.00106422522,0.00106422522,0.012552437,-0.00212845043,-0.00212845043,-0.19965371,0.00106422522,0.00106422522,0.06946018
188,-0.5913086,-0.5949376,-0.5386829,-0.5801653,0.759277344,0.7600026,0.6767128,0.7670122,0.2998047,0.305413961,0.38000396,0.3102658,0.0,0.00107623055,0.012332343,0.0,-0.00237727724,-0.19964643,0.0,0.00132353883,0.06975355
189,-0.5966797,-0.5969128,-0.54012245,-0.5835225,0.761230469,0.763913631,0.6767155,0.7693685,0.310546875,0.310463518,0.38425103,0.31582478,0.00106422522,0.00106422522,0.012250361,-0.00212845043,-0.00212845043,-0.19954027,0.00106422522,0.00106422522,0.06985248
190,-0.5991211,-0.5970829,-0.53838545,-0.59251696,0.7705078,0.7648918,0.675335,0.7787686,0.3154297,0.316704,0.3830851,0.32356188,0.0,0.00106003636,0.012173495,0.0,-0.001648765,-0.1992089,0.00106422522,0.00106422522,0.06968958
191,-0.595214844,-0.593233347,-0.5374997,-0.5845393,0.7602539,0.7588702,0.67608285,0.7727317,0.32421875,0.312273741,0.38475534,0.32173035,0.00106422522,0.00106422522,0.01201735,-0.00106422522,-0.00106422522,-0.19898579,0.0,0.000302736938,0.06936589
192,-0.587402344,-0.5919502,-0.53674716,-0.5752209,0.751464844,0.758816063,0.6792118,0.7621187,0.295898438,0.307053477,0.3818165,0.31676504,-0.00106422522,0.000354741729,0.011832359,0.00106422522,-0.000354741729,-0.19867077,-0.00106422522,-0.00106422522,0.06911819
193,-0.595214844,-0.5954287,-0.5365693,-0.58499414,0.7661133,0.759937346,0.6788949,0.7744041,0.312988281,0.311335534,0.37975162,0.31911087,0.00106422522,0.00106422522,0.011807874,-0.00106422522,-0.000118247233,-0.19855605,0.0,-0.000354741729,0.069100186
194,-0.5991211,-0.596751,-0.53786635,-0.5873349,0.7548828,0.759009063,0.6804499,0.7690932,0.313964844,0.309670448,0.38021997,0.31888676,0.0,0.000354741729,0.011898632,0.00106422522,0.000670067733,-0.19840358,0.0,-0.000118247241,0.06924963
195,-0.5957031,-0.59670347,-0.5362388,-0.5857297,0.762207031,0.7606528,0.6798728,0.766594,0.303710938,0.311068535,0.37685958,0.316794,0.0,0.000118247241,0.011806938,0.00106422522,0.00106422522,-0.19835621,0.0,-3.94157469e-05,0.069507614
196,-0.59765625,-0.5960366,-0.5404076,-0.5904193,0.7607422,0.761526167,0.6769833,0.77133054,0.319824219,0.314464241,0.3821372,0.3195909,0.0,-0.000312224554,0.011684935,0.0,0.000354741729,-0.1986627,0.0,0.000397422875,0.069732495
197,-0.59375,-0.5922336,-0.53821504,-0.5810739,0.7631836,0.7636077,0.6774883,0.7725007,0.3125,0.3120154,0.38038653,0.32003906,-0.00106422522,-0.00106422522,0.011867449,0.0,-0.000421267177,-0.19896993,0.00106422522,0.00106422522,0.06992894
198,-0.586914063,-0.593570054,-0.5376844,-0.57675433,0.7661133,0.7612091,0.6724259,0.77162594,0.309082031,0.3113619,0.37918106,0.31694013,0.00106422522,0.000709483458,0.012675973,-0.00106422522,-0.00106422522,-0.19950308,0.00106422522,0.00106422522,0.07006474
199,-0.6015625,-0.5956431,-0.5413737,-0.5902195,0.75390625,0.756991565,0.6732136,0.7637005,0.312988281,0.307563335,0.37831962,0.31365824,0.00212845043,0.00130071968,0.013120745,-0.00212845043,-0.00141896692,-0.19974421,0.00106422522,0.00106422522,0.069977924
200,-0.5917969,-0.594706535,-0.5366491,-0.58377236,0.7558594,0.755423,0.674636,0.76445687,0.298339844,0.303855747,0.3784355,0.3099933,0.00106422522,0.00114305678,0.013073355,-0.00106422522,-0.00118247245,-0.1997154,0.0,0.000354741729,0.069745705
201,-0.5966797,-0.595533669,-0.5398131,-0.5833386,0.753417969,0.757667065,0.67525315,0.7616531,0.305664063,0.307014436,0.3816261,0.3114498,0.00106422522,0.00109050237,0.0128768915,-0.00106422522,-0.00106422522,-0.1995599,0.0,0.000118247241,0.0694581
202,-0.595214844,-0.5938563,-0.54174685,-0.58119416,0.764160156,0.761182,0.6772325,0.77162534,0.311523438,0.309369415,0.3808922,0.3141904,0.00106422522,0.00036350076,0.012368812,0.0,-0.000354741729,-0.19929983,0.0,-0.0003327114,0.06924159
203,-0.5908203,-0.5963896,-0.5391767,-0.5787118,0.76171875,0.7608888,0.67647415,0.7745824,0.3095703,0.308364034,0.38075396,0.31405938,-0.00106422522,0.00012116693,0.012086069,0.0,-0.000384694169,-0.19919398,-0.00106422522,-0.00106422522,0.06938951
204,-0.6044922,-0.6000009,-0.5434199,-0.59600085,0.7597656,0.759489,0.6761834,0.76883084,0.306152344,0.307052344,0.379618,0.3116936,0.00106422522,0.00106422522,0.012145904,-0.00106422522,-0.00106422522,-0.1991973,0.00106422522,0.000354741729,0.0697962
205,-0.5991211,-0.596972942,-0.5395604,-0.58856577,0.7578125,0.76097554,0.67639077,0.7655204,0.306640625,0.306777865,0.37919548,0.31042856,0.0,0.00138139643,0.012334493,0.0,-0.00127038022,-0.19924778,0.00106422522,0.0008277307,0.070037924
206,-0.5917969,-0.594010532,-0.5370688,-0.5808735,0.765625,0.763424158,0.67572707,0.7739927,0.306640625,0.30994156,0.37916782,0.3149048,0.00106422522,0.00106422522,0.01247435,-0.00106422522,-0.00106422522,-0.19921154,0.00106422522,0.00106422522,0.069948845
207,-0.5932617,-0.5949762,-0.53827983,-0.5782869,0.7636719,0.7595203,0.6759888,0.7744659,0.31640625,0.313274771,0.38137436,0.31920537,0.00106422522,0.00106422522,0.012357929,-0.00106422522,-0.00106422522,-0.1991257,0.0,0.000354741729,0.069944724
208,-0.59765625,-0.599855363,-0.54190904,-0.5896736,0.751464844,0.757567942,0.67615265,0.7599899,0.313476563,0.3125955,0.37878087,0.31849656,0.0,0.000308146147,0.011914024,0.0,9.509889e-05,-0.19883506,0.0,0.0007542424,0.070139706
209,-0.6069336,-0.6001797,-0.5422394,-0.59515756,0.76171875,0.7593586,0.675856,0.77098733,0.311035156,0.311718017,0.37842453,0.31780374,-0.00106422522,-0.00106422522,0.011671901,0.00212845043,0.00212845043,-0.1986282,0.00212845043,0.00212845043,0.07018903
210,-0.59375,-0.5981719,-0.5456713,-0.59034497,0.758789063,0.7589789,0.6760124,0.7725161,0.311523438,0.3124021,0.37894073,0.3172448,0.0,-0.0006645035,0.012010612,0.0,0.00152007327,-0.1986862,0.00212845043,0.000709483458,0.069952086
211,-0.600585938,-0.5955495,-0.5445042,-0.58405495,0.758789063,0.759503365,0.67535853,0.76454556,0.313964844,0.307910085,0.3795858,0.31449825,0.00106422522,0.00106422522,0.012446748,-0.00106422522,-0.00106422522,-0.19888031,-0.00212845043,-0.00011824727,0.06977829
212,-0.5878906,-0.5933733,-0.53906906,-0.5777625,0.7607422,0.7593527,0.6774783,0.77181286,0.297363281,0.30787757,0.37973437,0.31664675,0.00212845043,0.00212845043,0.01256193,-0.00106422522,-0.000354741729,-0.19880469,0.00106422522,0.000670067733,0.06987458
213,-0.5966797,-0.5981817,-0.54267436,-0.5848559,0.7578125,0.7591397,0.67611283,0.7659863,0.318359375,0.310308129,0.37960786,0.31953904,0.0,0.000709483458,0.012250868,0.00106422522,0.00106422522,-0.19857483,0.00106422522,0.00106422522,0.06988729
214,-0.6044922,-0.5999473,-0.54320645,-0.5973916,0.7602539,0.762975,0.6800438,0.7706841,0.3046875,0.311443835,0.3814372,0.32184598,0.0,-0.000474089262,0.011454527,0.0,0.0018100919,-0.19793275,0.0,0.000354741729,0.06972098
215,-0.597167969,-0.5961413,-0.53556687,-0.5861831,0.76953125,0.764741659,0.67913675,0.77822506,0.319335938,0.310845852,0.38196754,0.32067192,-0.00106422522,-0.00106422522,0.01105038,0.00212845043,0.00212845043,-0.19755572,0.0,0.000118247241,0.06951915
216,-0.5913086,-0.5950354,-0.5389491,-0.5821874,0.76171875,0.7619126,0.67978466,0.7709374,0.3017578,0.304461628,0.3813705,0.31161526,-0.00106422522,-0.00106422522,0.01108144,0.00212845043,0.00212845043,-0.19743872,0.0,3.94157469e-05,0.069446504
217,-0.59765625,-0.593852937,-0.53667235,-0.58417803,0.759277344,0.7585282,0.6809315,0.7679358,0.30078125,0.3067281,0.3829134,0.30866623,0.0,-0.000354741729,0.011207717,0.0,0.00171825767,-0.19757204,0.0,1.31385823e-05,0.069434255
218,-0.5888672,-0.5931333,-0.53406835,-0.58255357,0.754394531,0.7583766,0.6790429,0.76575315,0.3149414,0.313017458,0.38221702,0.31573248,0.0,-0.000390471425,0.011432355,0.00106422522,0.00106422522,-0.19789045,0.0,4.37952758e-06,0.06942966
219,-0.5966797,-0.593707144,-0.54451585,-0.58200604,0.762207031,0.76093024,0.6821704,0.7686133,0.3173828,0.314951152,0.38297606,0.3217643,-0.00106422522,-0.00106422522,0.011570253,0.00212845043,0.00212845043,-0.19805442,0.0,0.000393404858,0.06960777
220,-0.5913086,-0.5960143,-0.54075575,-0.5823505,0.762207031,0.7651994,0.6772996,0.77349377,0.314453125,0.312828779,0.38251108,0.3205112,0.0,-0.000482632546,0.012017131,0.0,0.00135167758,-0.19860688,0.00106422522,0.00106422522,0.06989309
221,-0.603027344,-0.599875867,-0.5414262,-0.59279495,0.772460938,0.7661342,0.6768336,0.7800268,0.309082031,0.313911676,0.37968504,0.3197535,0.00106422522,0.00106422522,0.012466306,-0.00106422522,-0.00106422522,-0.1989924,0.00106422522,0.00106422522,0.069861546
222,-0.600585938,-0.5982334,-0.5441173,-0.5892695,0.7607422,0.7617257,0.67817813,0.76760715,0.319824219,0.3144354,0.38100892,0.32057816,0.00212845043,0.00212845043,0.012560068,-0.00106422522,-0.00141896692,-0.1993206,0.0,0.0002281631,0.06950617
223,-0.5942383,-0.598011434,-0.53778124,-0.5847969,0.7583008,0.760581732,0.6767787,0.76663035,0.3095703,0.310703725,0.38022715,0.3164246,0.0,0.000709483458,0.0123071205,-0.00212845043,-0.0008277308,-0.19933273,-0.00106422522,-0.00106422522,0.0692213
224,-0.6015625,-0.596472561,-0.53906393,-0.5897433,0.76171875,0.7593866,0.6754838,0.771111,0.308105469,0.3117385,0.3812417,0.31598032,0.0,0.000236494481,0.011800454,0.00106422522,-0.000275910279,-0.1991673,0.0,-0.000354741729,0.06920717
225,-0.58984375,-0.593192637,-0.5407018,-0.57974046,0.7558594,0.7589882,0.6766437,0.7636844,0.31640625,0.313873768,0.38102177,0.3199585,0.0,7.88314937e-05,0.011633501,-0.00106422522,-0.00106422522,-0.19909538,0.0,-0.000118247241,0.06923391
226,-0.5932617,-0.595680058,-0.53740174,-0.58203346,0.76171875,0.7586927,0.6748803,0.771567,0.313476563,0.31214413,0.38052687,0.31866267,0.0,-0.000391690031,0.011577642,0.0,-0.000354741729,-0.1992228,0.0,-0.000477779948,0.06917676
227,-0.600585938,-0.600415468,-0.5420681,-0.594581,0.7553711,0.7566411,0.67565674,0.765511,0.309082031,0.312218636,0.380531,0.31637794,-0.00106422522,-0.00106422522,0.011552558,0.0,-0.000301418448,-0.19937846,-0.00106422522,-0.00106422522,0.06923804
228,-0.604980469,-0.59873873,-0.5421496,-0.5940465,0.7558594,0.7580731,0.6759282,0.76497144,0.3154297,0.3141966,0.37991902,0.31894,0.0,-0.0004632974,0.012008913,-0.00106422522,-0.00106422522,-0.19983831,0.00106422522,0.00106422522,0.0694287
229,-0.5908203,-0.5949246,-0.5389593,-0.5807842,0.76171875,0.759689748,0.6766167,0.7733194,0.3149414,0.316809028,0.38060397,0.3237374,0.00106422522,0.00106422522,0.012457423,-0.00212845043,-0.00177370885,-0.20013797,0.0,0.000354741729,0.06959891
230,-0.595214844,-0.595769167,-0.5391399,-0.58239436,0.759277344,0.7577872,0.6749491,0.76844215,0.321289063,0.316052228,0.37891656,0.32330123,0.00212845043,0.00212845043,0.012732756,-0.00212845043,-0.00165546138,-0.20040278,0.0,0.000180279254,0.06964598
231,-0.597167969,-0.596864462,-0.5416325,-0.5872073,0.754394531,0.7573158,0.6726302,0.7621531,0.3100586,0.312056452,0.3786056,0.3176291,0.0,0.00197076332,0.012746296,-0.00106422522,-0.00161604572,-0.20043221,0.00106422522,0.00106422522,0.06950195
232,-0.59765625,-0.59722954,-0.5378823,-0.5868655,0.7597656,0.7596001,0.67623913,0.7665376,0.3100586,0.313003182,0.37838137,0.31779236,0.00106422522,0.00106422522,0.012669534,-0.00212845043,-0.00160290708,-0.20047276,-0.00106422522,-0.00106422522,0.069286875
233,-0.597167969,-0.5970257,-0.53942853,-0.58738995,0.76171875,0.7624774,0.67528945,0.7750167,0.316894531,0.313481539,0.3840797,0.32255617,0.00106422522,0.00106422522,0.012745928,-0.00106422522,-0.00195326935,-0.20050496,0.0,-0.0006662083,0.06936912
234,-0.5966797,-0.594516337,-0.5385282,-0.5850488,0.7661133,0.7621344,0.67378664,0.7718656,0.310546875,0.305665731,0.3834407,0.31606597,0.00106422522,0.00106422522,0.012692812,-0.00319267553,-0.00207005651,-0.2004313,0.00212845043,0.00212845043,0.069671996
235,-0.58984375,-0.591564,-0.53499913,-0.5799765,0.7578125,0.761369,0.67560726,0.7680358,0.29296875,0.30224666,0.38171077,0.3050379,0.00106422522,0.00106422522,0.012546849,-0.00106422522,-0.00139950227,-0.20035073,0.0,0.000709483458,0.06969213
236,-0.590332031,-0.590091646,-0.53342575,-0.58088964,0.764160156,0.7606256,0.67956764,0.7728587,0.308105469,0.3063153,0.3832191,0.30727655,0.0,0.00106941734,0.012363246,-0.00106422522,-0.001530726,-0.20042396,0.0,0.000236494481,0.06941232
237,-0.5883789,-0.5884616,-0.53417367,-0.57815844,0.756347656,0.7564716,0.6778298,0.7683596,0.30859375,0.3068577,0.37820208,0.3122862,0.00106422522,0.00106422522,0.012293079,-0.00212845043,-0.00228395057,-0.20054623,0.0,-0.000214447718,0.069128804
238,-0.586914063,-0.588732,-0.5323008,-0.57588685,0.7524414,0.75573796,0.67967445,0.7620094,0.305664063,0.3078523,0.3807879,0.31258744,0.00106422522,0.000354741729,0.012234702,-0.00319267553,-0.00319267553,-0.20049126,-0.00106422522,-0.00106422522,0.06900928
239,-0.5908203,-0.594356,-0.5343261,-0.5805392,0.7583008,0.759562433,0.6787651,0.76803535,0.311035156,0.310462475,0.38575777,0.31330314,-0.00106422522,0.000118247233,0.012100039,0.0,-0.00304180523,-0.20030734,0.0,-0.0005182635,0.06930284
240,-0.6035156,-0.5968817,-0.54293233,-0.5910305,0.764648438,0.7627904,0.6791151,0.7773508,0.3125,0.314099461,0.38235787,0.31665003,0.00106422522,0.00106422522,0.012109741,-0.00212845043,-0.00212845043,-0.20006707,0.00106422522,0.00106422522,0.06982669
241,-0.592773438,-0.5957704,-0.53839993,-0.58129674,0.764160156,0.7628898,0.6792759,0.7713864,0.319335938,0.320845634,0.38171592,0.3249166,0.0,0.00138226477,0.012207806,0.0,-0.00224904856,-0.19999455,0.00106422522,0.00106422522,0.07032707
242,-0.59765625,-0.598004162,-0.5431148,-0.58665586,0.76171875,0.763085663,0.67611617,0.76981306,0.329101563,0.326512337,0.3833883,0.333041,0.00106422522,0.00106422522,0.0121089015,-0.00319267553,-0.00319267553,-0.19978815,0.00106422522,0.00141896692,0.07057757
243,-0.600585938,-0.595168054,-0.54062843,-0.5881699,0.764648438,0.759407461,0.67485756,0.7738974,0.329589844,0.323030144,0.38442698,0.33207396,0.0,0.000354741729,0.011959041,0.0,-0.00268977415,-0.19964382,0.00212845043,0.00212845043,0.07055278
244,-0.586914063,-0.5921068,-0.5331405,-0.57785124,0.7504883,0.756391048,0.67545015,0.7614761,0.312988281,0.314219683,0.38431522,0.31966138,0.0,0.000118247241,0.011838807,-0.00106422522,-0.00106422522,-0.1996225,0.0,0.00232348521,0.070374444
245,-0.5942383,-0.592876732,-0.5386009,-0.579653,0.759277344,0.759129047,0.67627287,0.76531,0.306640625,0.309329748,0.3849816,0.31082785,0.0,0.0004441021,0.011913359,0.0,-0.00137560931,-0.19971281,0.00212845043,0.00212845043,0.07009123
246,-0.592285156,-0.5931334,-0.5364292,-0.5817672,0.76171875,0.7662266,0.6821404,0.7756763,0.3071289,0.3091646,0.38519597,0.3109696,0.00106422522,0.00106422522,0.012204782,-0.00319267553,-0.00319267553,-0.19981581,-0.00106422522,0.000709483458,0.069864005
247,-0.5942383,-0.596636951,-0.5379371,-0.5829118,0.777832031,0.7650117,0.682169,0.78051835,0.311035156,0.3123648,0.3804224,0.31444797,0.0,0.00123933738,0.012398216,0.0,-0.00294811465,-0.19983216,0.00106422522,0.00106422522,0.06979043
248,-0.602539063,-0.598293066,-0.5430815,-0.58992034,0.750976563,0.760212243,0.6823594,0.76084834,0.316894531,0.31668672,0.3829221,0.3213975,0.00106422522,0.00106422522,0.012668117,-0.00106422522,-0.00106422522,-0.19993047,0.0,0.00169606647,0.06981392
249,-0.5957031,-0.598194063,-0.5411828,-0.5856215,0.764648438,0.7631697,0.67992663,0.7702624,0.320800781,0.318941146,0.38339654,0.32824335,0.00106422522,0.00106422522,0.0128814615,-0.00212845043,-0.00141896692,-0.20005189,0.00212845043,0.00212845043,0.069682114
250,-0.600585938,-0.5991376,-0.542458,-0.5879352,0.764648438,0.764643848,0.6835576,0.78510743,0.319335938,0.312856674,0.38163835,0.3241102,0.00106422522,0.00141896692,0.013139556,-0.00106422522,-0.00153721415,-0.20020543,-0.00212845043,0.000354741729,0.069452085
251,-0.5986328,-0.597336233,-0.53921926,-0.5884276,0.7661133,0.764646947,0.68383783,0.76625335,0.300292969,0.3092009,0.3787044,0.31395116,0.00212845043,0.00153721415,0.013204626,-0.00212845043,-0.00193137175,-0.20024182,0.00106422522,0.00106422522,0.069343545
252,-0.5942383,-0.5957592,-0.5358998,-0.5844916,0.7631836,0.764973462,0.68214077,0.77300674,0.314453125,0.311237544,0.3816193,0.3153101,0.00106422522,0.00106422522,0.012886629,-0.00212845043,-0.000643790641,-0.19997877,0.0,0.000354741729,0.06939968
253,-0.5957031,-0.593931437,-0.53520286,-0.58359635,0.767089844,0.7650823,0.6818607,0.7756966,0.3100586,0.313055754,0.3815074,0.31932303,0.0,0.000904907938,0.012547029,0.00212845043,0.000140144839,-0.19968209,0.0,0.000118247241,0.06944205
254,-0.590332031,-0.5925084,-0.53392035,-0.58175826,0.7631836,0.7625144,0.68121153,0.77403796,0.3178711,0.3154522,0.37959424,0.32040554,0.00106422522,0.00106422522,0.012256138,-0.00106422522,-0.00101751031,-0.19955155,0.0,0.0004808314,0.06939659
255,-0.5932617,-0.5931733,-0.54016286,-0.58030415,0.759277344,0.7595425,0.6820711,0.767593,0.3154297,0.3125075,0.38027737,0.32126406,0.0,0.00111981342,0.012159475,-0.00212845043,-0.0014033952,-0.19966197,0.00106422522,0.00106422522,0.06905036
256,-0.59375,-0.5963247,-0.541701,-0.58324873,0.756835938,0.762132645,0.6814781,0.7660247,0.306640625,0.305178285,0.3765336,0.31524703,0.00106422522,0.00106422522,0.012060083,-0.00106422522,-0.0004677984,-0.19992232,-0.00212845043,-0.000709483458,0.06859026
257,-0.6020508,-0.5996538,-0.5440456,-0.5932664,0.770019531,0.76380986,0.68215096,0.7785081,0.296386719,0.308269054,0.3833359,0.31547546,-0.00106422522,0.000354741729,0.012054773,0.00106422522,-0.000510674552,-0.20004377,-0.00106422522,-0.00106422522,0.0686286
258,-0.600585938,-0.5986476,-0.5417407,-0.591627,0.759277344,0.762090266,0.68259245,0.77173674,0.3232422,0.3084855,0.38247353,0.32004777,0.00106422522,0.0008277307,0.012422124,-0.00212845043,-0.00194393343,-0.20026633,0.0,-0.000226851131,0.06910524
259,-0.5957031,-0.5960336,-0.5382764,-0.58466345,0.7631836,0.763958454,0.6821884,0.76827514,0.2939453,0.302698284,0.3795478,0.30854607,0.00106422522,0.0009853938,0.012624145,-0.00319267553,-0.00206694473,-0.20041251,0.00106422522,0.00106422522,0.069304906
260,-0.59375,-0.5945112,-0.54135054,-0.5811325,0.766601563,0.7665343,0.67975134,0.7784515,0.305664063,0.305814773,0.38402635,0.30518422,0.00106422522,0.00106422522,0.012553266,-0.00106422522,-0.00106422522,-0.20047747,-0.00106422522,-0.000354741729,0.069070935
261,-0.59375,-0.5974217,-0.5361915,-0.5821235,0.769042969,0.7659281,0.68067473,0.77669495,0.309082031,0.311573654,0.37687543,0.3165381,0.0,0.00109206117,0.01237217,0.0,-0.00153856189,-0.20044048,-0.00106422522,-0.00106422522,0.06894071
262,-0.6040039,-0.5990429,-0.54303163,-0.59321386,0.762207031,0.760517657,0.6788545,0.7697684,0.319824219,0.3143071,0.37801978,0.32024893,0.00106422522,0.00106422522,0.011698094,-0.00319267553,-0.00319267553,-0.20019473,0.0,-0.000354741729,0.06908309
263,-0.5957031,-0.596816361,-0.5406035,-0.5823673,0.753417969,0.757412136,0.6798415,0.7602549,0.311523438,0.3104982,0.38042516,0.31772506,-0.00106422522,-0.000709483458,0.011168365,-0.00106422522,-0.00106422522,-0.20002717,0.0,0.000426884071,0.069353655
264,-0.5957031,-0.5973763,-0.53586525,-0.58734536,0.7583008,0.761097,0.6767508,0.7687135,0.305664063,0.31346035,0.37705317,0.32082042,-0.00212845043,-0.000236494467,0.0112155415,0.0,-0.00101395475,-0.20023403,0.00106422522,0.00106422522,0.069559604
265,-0.5996094,-0.593331158,-0.5403356,-0.5875802,0.7675781,0.7642784,0.6778135,0.7771649,0.32421875,0.314773232,0.38165516,0.32325235,0.00212845043,0.00027591025,0.011520868,-0.00319267553,-0.00319267553,-0.200522,0.0,0.000354741729,0.069595404
266,-0.5830078,-0.5897041,-0.5329296,-0.5721545,0.764160156,0.763223,0.678421,0.7695096,0.306640625,0.310653567,0.37975782,0.31825358,-0.00106422522,9.197008e-05,0.011999026,-0.00212845043,-0.00283793383,-0.20078258,0.0,0.000118247241,0.069518216
267,-0.592773438,-0.593215168,-0.5370979,-0.5796623,0.761230469,0.7630339,0.67944443,0.7752028,0.310546875,0.311396241,0.38082725,0.3185197,0.00106422522,0.0007401402,0.012368532,-0.00319267553,-0.002364945,-0.20079342,0.0,3.94157469e-05,0.069447294
268,-0.597167969,-0.594711065,-0.5380994,-0.5883118,0.764648438,0.759715736,0.6779976,0.7732214,0.312988281,0.30822584,0.3809133,0.316569,0.00106422522,0.00131093862,0.012887583,-0.00106422522,-0.00149779848,-0.20043096,0.0,1.31385823e-05,0.06942966
269,-0.59375,-0.5942331,-0.5372944,-0.5847903,0.751464844,0.7560055,0.67952806,0.75741524,0.300292969,0.305053145,0.3798844,0.31227267,0.00212845043,0.0015012048,0.013220842,-0.00106422522,-0.0012087496,-0.20016637,0.0,0.0003991663,0.06960777
270,-0.5942383,-0.592446148,-0.5407803,-0.5796331,0.756835938,0.758024,0.678093,0.7690668,0.306640625,0.302042454,0.3810678,0.3120542,0.00106422522,0.001209885,0.013137729,-0.00106422522,-0.0011124,-0.20001914,0.00106422522,0.00106422522,0.06989309
271,-0.5888672,-0.5939664,-0.5383251,-0.5784761,0.761230469,0.757720232,0.67728645,0.77198577,0.2944336,0.306572765,0.3773348,0.31284878,0.00106422522,0.00111277855,0.012986487,-0.00106422522,-0.00108028343,-0.20006543,0.00106422522,0.00106422522,0.069861546
272,-0.600585938,-0.5962636,-0.5392117,-0.5896458,0.75390625,0.757618964,0.6758077,0.7616386,0.3232422,0.3132912,0.38027155,0.32027438,0.00106422522,0.00108040962,0.012904566,-0.00106422522,-0.00177906139,-0.20040959,0.0,0.000228599369,0.06950617
273,-0.5942383,-0.594587862,-0.5373223,-0.5847289,0.761230469,0.7590501,0.67537856,0.77182627,0.3100586,0.3129265,0.37834623,0.3209913,0.00106422522,0.0014243616,0.013016872,-0.00319267553,-0.002366729,-0.20063779,-0.00106422522,-0.00106422522,0.06922445
274,-0.5932617,-0.5920761,-0.5371449,-0.57818824,0.7583008,0.75692296,0.67112255,0.77096504,0.3154297,0.315571874,0.37674806,0.3187178,0.00212845043,0.00153901242,0.013123463,-0.00212845043,-0.00185313483,-0.20051865,0.0,-0.000354741729,0.069206804
275,-0.5883789,-0.5923782,-0.53839356,-0.5769628,0.753417969,0.75491184,0.66993207,0.75902,0.318359375,0.315151572,0.37685442,0.32142022,0.00106422522,0.00122248754,0.013047954,-0.00106422522,-0.00132719509,-0.20023876,0.0,0.00128621585,0.06943956
276,-0.5966797,-0.5962224,-0.5370402,-0.5873148,0.754394531,0.756845653,0.6801564,0.7634484,0.311523438,0.312407285,0.37838352,0.3183286,0.00106422522,0.00111697929,0.012736584,-0.00106422522,-0.00115188176,-0.1994968,0.00319267553,0.00319267553,0.069647394
277,-0.5996094,-0.596039,-0.53892624,-0.58813375,0.761230469,0.75862956,0.6779614,0.77153265,0.310546875,0.3103532,0.37994406,0.31831777,0.00106422522,0.00106422522,0.012507734,-0.00106422522,-2.92188488e-05,-0.19904976,-0.00212845043,0.0007094834,0.06979982
278,-0.592285156,-0.595489562,-0.5393141,-0.581001,0.7578125,0.7584104,0.6811232,0.76242495,0.308105469,0.3026698,0.38194147,0.31213915,0.0,0.0010484308,0.012376699,0.00212845043,0.000345002132,-0.19892696,0.00106422522,0.00130071968,0.06990449
279,-0.598144531,-0.597585,-0.539139,-0.5865622,0.758789063,0.761918068,0.6806501,0.7703298,0.289550781,0.297667265,0.37841916,0.30029178,0.00106422522,0.00106422522,0.012420973,-0.00106422522,-0.000594482757,-0.19914892,0.00212845043,0.000433573266,0.06977965
280,-0.5991211,-0.5968187,-0.5386469,-0.58957756,0.7685547,0.7630873,0.6793531,0.77454966,0.30078125,0.299906015,0.37752914,0.30117223,0.00106422522,0.00106422522,0.012704326,-0.00106422522,-0.00126238621,-0.19974151,-0.00212845043,-0.000210217317,0.06952164
281,-0.59375,-0.594610155,-0.53910464,-0.5831036,0.758789063,0.763477,0.67947495,0.76769876,0.301269531,0.303093672,0.37724632,0.30551192,0.00106422522,0.00106422522,0.012844024,-0.00212845043,-0.0014850205,-0.20006499,0.00106422522,0.00106422522,0.069316916
282,-0.5932617,-0.5950133,-0.53794557,-0.58191794,0.7685547,0.764257967,0.67874646,0.778111,0.308105469,0.311317682,0.3754165,0.31441417,0.00106422522,0.00106422522,0.012858132,-0.00106422522,-0.00191397371,-0.2004363,0.0,0.0007292134,0.06927306
283,-0.597167969,-0.5967753,-0.53798693,-0.58712775,0.7607422,0.760612,0.678964,0.7734484,0.3227539,0.31845355,0.38145238,0.32512602,0.00106422522,0.00106422522,0.012858772,-0.00319267553,-0.00205695815,-0.20053923,-0.00106422522,-0.00106422522,0.06941049
284,-0.598144531,-0.597199857,-0.5401007,-0.5878697,0.756835938,0.761349857,0.6792456,0.7656548,0.321289063,0.317576975,0.37751153,0.32183766,0.00106422522,0.00106422522,0.012712584,-0.00106422522,-0.00210461952,-0.20057264,0.00106422522,0.000354741729,0.06961776
285,-0.5966797,-0.5968531,-0.5390425,-0.5848265,0.766601563,0.764362752,0.6789216,0.7771206,0.312988281,0.3094723,0.37736234,0.31450567,0.00106422522,0.00106422522,0.012493396,-0.00319267553,-0.00319267553,-0.20056562,0.00106422522,0.000118247233,0.06970931
286,-0.5966797,-0.597714,-0.5409594,-0.58547705,0.7651367,0.7632511,0.68115604,0.7757931,0.297851563,0.3118163,0.37825507,0.32067817,0.0,0.000354741729,0.012219872,0.0,-0.00106422522,-0.20068988,-0.00106422522,3.94157432e-05,0.06965992
287,-0.5996094,-0.5976755,-0.5411205,-0.5897366,0.7602539,0.7627178,0.6813283,0.76763314,0.328125,0.316992164,0.37791398,0.3268517,0.0,0.000381241523,0.012168825,0.0,-0.00183362735,-0.20080729,0.00106422522,0.00106422522,0.06957199
288,-0.5957031,-0.594081938,-0.537011,-0.58507955,0.764648438,0.763191044,0.67896974,0.7760071,0.311035156,0.310091138,0.37947965,0.3190173,0.00106422522,0.00106422522,0.012388781,-0.005321126,-0.005321126,-0.20063704,0.0,0.000354741729,0.069524474
289,-0.5888672,-0.5910937,-0.53740036,-0.57742774,0.762207031,0.7633488,0.6795347,0.7706252,0.3022461,0.308441848,0.37878075,0.3125741,0.00106422522,0.00106422522,0.012405836,-0.00106422522,-0.00248319213,-0.20039755,0.0,0.000118247241,0.06947631
290,-0.590332031,-0.5917253,-0.53643245,-0.5806246,0.764648438,0.765842855,0.68128794,0.77439094,0.312988281,0.311961085,0.37870032,0.31560588,0.0,0.000354741729,0.012149112,-0.00106422522,-0.00106422522,-0.2001114,0.0,3.94157469e-05,0.069446504
291,-0.59375,-0.5953538,-0.5367531,-0.58488107,0.76953125,0.763581753,0.68270075,0.77918035,0.314453125,0.310367227,0.3801092,0.31741112,0.0,0.00039612985,0.012049113,0.0,-0.001705484,-0.20002888,0.0,1.31385823e-05,0.069434255
292,-0.600585938,-0.596075,-0.54083425,-0.5879016,0.7553711,0.7625025,0.6791735,0.7629939,0.3046875,0.307069033,0.3783565,0.31410888,0.00106422522,0.00106422522,0.012157909,-0.00319267553,-0.00319267553,-0.2000509,0.0,4.37952758e-06,0.06943519
293,-0.592285156,-0.5956643,-0.5393878,-0.5826941,0.7685547,0.763607562,0.68028516,0.7776095,0.306152344,0.3115035,0.37829322,0.3187989,0.0,0.0012663902,0.012253835,0.0,-0.0032258823,-0.20009717,0.0,0.000393021561,0.06942966
294,-0.5986328,-0.597480536,-0.53819156,-0.5852867,0.7597656,0.7613718,0.6782565,0.7739377,0.321289063,0.3111913,0.38124555,0.323634,0.00106422522,0.00106422522,0.01231386,-0.00212845043,-0.00212845043,-0.20018792,0.00106422522,0.00106422522,0.069375806
295,-0.598144531,-0.5982487,-0.5417753,-0.5892159,0.7607422,0.7622542,0.6789267,0.76352125,0.30078125,0.309785128,0.3809957,0.31907955,0.0,0.0009936867,0.012401031,-0.00212845043,-0.00177370862,-0.20023969,-0.00106422522,-0.00106422522,0.069424644
296,-0.5991211,-0.597691,-0.54026,-0.5884828,0.764648438,0.76206,0.6769368,0.77623564,0.3173828,0.309479147,0.38262367,0.31619957,0.00106422522,0.00106422522,0.0123924855,-0.00106422522,-0.0020102032,-0.20028111,0.0,-0.00103509007,0.06957332
297,-0.5957031,-0.595714748,-0.5396347,-0.5860119,0.759277344,0.7585773,0.67667526,0.7681462,0.301269531,0.305145383,0.38292736,0.31208384,0.00106422522,0.000354741729,0.012225681,-0.00319267553,-0.00319267553,-0.20029174,0.00106422522,0.00106422522,0.06989068
298,-0.59375,-0.592289031,-0.53996754,-0.5811272,0.754394531,0.757253647,0.6743576,0.76109195,0.3046875,0.307607055,0.38319626,0.31071627,-0.00106422522,0.000472988962,0.012170164,0.0,-0.00316915661,-0.20033798,0.0,0.00209674332,0.07022609
299,-0.587402344,-0.590984344,-0.5303574,-0.5755684,0.758789063,0.757626235,0.6739794,0.7721857,0.312988281,0.305335164,0.38688257,0.31162184,0.00212845043,0.00122188823,0.012388125,-0.00212845043,-0.00212845043,-0.20043327,0.00212845043,0.00212845043,0.070349336
300,-0.5932617,-0.593967438,-0.536163,-0.58532244,0.756835938,0.7544952,0.6741842,0.76538163,0.295410156,0.307995826,0.38294578,0.31723922,0.00106422522,0.00111677952,0.012725045,-0.00212845043,-0.00212845043,-0.20042303,0.0,0.001700232,0.070282385
301,-0.59765625,-0.592683136,-0.5355249,-0.5832156,0.749023438,0.75491637,0.6764132,0.7538383,0.3232422,0.31539312,0.38213304,0.32427782,0.00106422522,0.00106422522,0.012655052,-0.00212845043,-0.00177370862,-0.20032744,0.00106422522,0.00106422522,0.07009945
302,-0.5864258,-0.5932316,-0.53863543,-0.5815306,0.761230469,0.758474767,0.67590964,0.7713726,0.3149414,0.313789874,0.38598022,0.32266626,0.0,0.000354741729,0.012229979,-0.00106422522,-0.0005912362,-0.19999409,0.00106422522,0.000354741729,0.06989574
303,-0.600585938,-0.59374,-0.54043645,-0.58254606,0.759277344,0.7572195,0.67404205,0.7705616,0.311035156,0.31748724,0.3938052,0.32398295,0.0,0.0003791667,0.012154379,0.00106422522,-0.000197078742,-0.19974756,-0.00106422522,0.000118247233,0.069746725
304,-0.587402344,-0.5947232,-0.53543454,-0.5816178,0.75390625,0.7582659,0.68083227,0.7638989,0.327636719,0.32067284,0.39423576,0.32853982,0.00106422522,0.00106422522,0.012527369,-0.00106422522,-0.00112991815,-0.19970655,0.00106422522,0.00106422522,0.069724776
305,-0.603027344,-0.596027553,-0.53868806,-0.58775,0.7636719,0.7599168,0.6774794,0.77313346,0.316894531,0.319456071,0.39004382,0.3272999,0.00106422522,0.00106422522,0.012761914,-0.00212845043,-0.00144086452,-0.1998433,0.0,0.001385606,0.0697862
306,-0.590332031,-0.594834745,-0.5382161,-0.58523816,0.7578125,0.7614436,0.67962325,0.7683941,0.320800781,0.31856218,0.39289346,0.32293275,0.00106422522,0.00106422522,0.012857647,-0.00106422522,-0.00118977157,-0.2001257,0.00106422522,0.00106422522,0.069822654
307,-0.598144531,-0.5957392,-0.5429844,-0.5819595,0.766601563,0.7639057,0.68049943,0.77466434,0.3154297,0.315497279,0.3893839,0.32115287,0.00106422522,0.00106422522,0.0129691595,-0.00106422522,-0.00146081578,-0.20028692,0.00106422522,0.000354741729,0.0697596
308,-0.5942383,-0.5986448,-0.54384243,-0.58458585,0.7636719,0.7621222,0.6787475,0.7723099,0.3125,0.312685281,0.39013255,0.31946722,0.00106422522,0.00141896692,0.013159468,-0.00212845043,-0.00190590555,-0.20046188,-0.00106422522,0.000118247233,0.06965992
309,-0.605957031,-0.6020548,-0.5465559,-0.5953867,0.758789063,0.7628298,0.67957866,0.76616234,0.3100586,0.317932844,0.39156282,0.32532424,0.00212845043,0.00153721415,0.013125079,-0.00212845043,-0.00205426873,-0.20051613,0.00106422522,0.00106422522,0.06957199
310,-0.6015625,-0.6014011,-0.5404834,-0.5933869,0.7675781,0.7632284,0.6792175,0.7762435,0.3310547,0.3177289,0.39481407,0.3307416,0.00106422522,0.0005124047,0.012711883,-0.00212845043,-0.00212845043,-0.20059413,0.0,0.000354741729,0.069522895
311,-0.600585938,-0.599718332,-0.5393821,-0.58818495,0.759277344,0.7612454,0.67885405,0.76913226,0.304199219,0.3144057,0.39701867,0.32122102,-0.00106422522,0.000170801577,0.012366972,0.0,-0.00254115881,-0.20060417,0.0,0.000118247241,0.0695385
312,-0.597167969,-0.596065,-0.5390949,-0.58448875,0.761230469,0.761561,0.6758452,0.7699991,0.321289063,0.31834355,0.39707085,0.3193888,0.00106422522,0.0007664173,0.01244552,-0.00319267553,-0.00319267553,-0.20083708,0.0,0.0004750559,0.06958824
313,-0.5913086,-0.596149266,-0.5351831,-0.58089113,0.762207031,0.762805462,0.67646617,0.77498937,0.319335938,0.319167882,0.39334875,0.3251045,0.00106422522,0.0009649559,0.012668311,-0.00212845043,-0.00283793383,-0.20105676,0.00106422522,0.00106422522,0.06948705
314,-0.6010742,-0.5974794,-0.53955495,-0.5886705,0.764648438,0.762243748,0.6750943,0.7720291,0.319824219,0.3192799,0.3911225,0.32425195,0.00106422522,0.00103113533,0.012665588,-0.00319267553,-0.0030744283,-0.20119058,-0.00106422522,-0.00106422522,0.069286875
315,-0.595214844,-0.596620739,-0.5393205,-0.5840697,0.759277344,0.761730969,0.6759246,0.769235,0.318847656,0.318177938,0.38429964,0.3262806,0.00106422522,0.00106422522,0.0125177065,-0.00319267553,-0.00279851817,-0.2011377,0.0,-0.000635885342,0.06936912
316,-0.597167969,-0.59763664,-0.538825,-0.58509386,0.7636719,0.7613973,0.6801946,0.7728858,0.31640625,0.311462969,0.3838253,0.3214166,0.0,0.000354741729,0.012034462,-0.00212845043,-0.00212845043,-0.2004876,0.00212845043,0.00212845043,0.069668055
317,-0.5991211,-0.5965104,-0.53927946,-0.5886584,0.758789063,0.7588447,0.6794657,0.770289,0.2998047,0.307922572,0.38848022,0.31414676,0.0,-0.000406073785,0.011673277,0.0,-0.000709483458,-0.19997394,0.0,0.000709483458,0.069819234
318,-0.592773438,-0.593693554,-0.53736854,-0.5813565,0.756347656,0.757831037,0.6792201,0.76697224,0.3125,0.30674243,0.3839749,0.31683233,-0.00106422522,-0.00106422522,0.011612648,0.0,-0.00042025288,-0.19967428,0.0,0.000148487336,0.069752365
319,-0.5917969,-0.593731165,-0.5385735,-0.57850397,0.7583008,0.759283543,0.6789243,0.7669066,0.2998047,0.313673258,0.38408315,0.32191303,0.00106422522,0.00106422522,0.011764342,-0.00106422522,-0.00106422522,-0.19978005,0.00106422522,0.00106422522,0.06940918
320,-0.5957031,-0.596022367,-0.537593,-0.585678,0.76171875,0.7622091,0.67881393,0.7706929,0.334472656,0.3207036,0.3854299,0.33007473,0.0,0.00181540486,0.0121624945,-0.00106422522,-0.00177370862,-0.20043121,-0.00106422522,-0.00106422522,0.0689801
321,-0.5986328,-0.596623361,-0.53774214,-0.5884893,0.765625,0.7636726,0.6779931,0.7768755,0.313964844,0.3166994,0.38387668,0.32745942,0.00106422522,0.00106422522,0.012456363,-0.00319267553,-0.0027196866,-0.20089497,0.0,-0.00224479,0.068649955
322,-0.595214844,-0.5943823,-0.53771913,-0.5819981,0.7631836,0.7609052,0.678763,0.7688241,0.3154297,0.313574284,0.38204262,0.31608942,0.00106422522,0.00106422522,0.012704326,-0.00319267553,-0.002325529,-0.20124583,-0.00212845043,-0.00212845043,0.0685232
323,-0.5913086,-0.596076667,-0.5369733,-0.5795796,0.7558594,0.7590062,0.6765409,0.7662921,0.30859375,0.3092774,0.37811068,0.31203818,0.00106422522,0.00106422522,0.012844024,-0.00106422522,-0.00219414313,-0.20124473,0.0,-0.000862844347,0.06902798
324,-0.602539063,-0.5989201,-0.54062694,-0.5903255,0.7602539,0.7595125,0.6761172,0.7660509,0.305664063,0.312402368,0.38023546,0.3167397,0.00106422522,0.00106422522,0.012858132,-0.00319267553,-0.00250508985,-0.20129675,0.00106422522,0.00106422522,0.06987327
325,-0.598144531,-0.59970516,-0.54162633,-0.5874974,0.759277344,0.7627737,0.67717946,0.7701854,0.322265625,0.318652362,0.38289887,0.325208,0.00106422522,0.00106422522,0.012858772,-0.00212845043,-0.00296348031,-0.20137903,0.00212845043,0.00212845043,0.07015947
326,-0.6020508,-0.6017572,-0.54358846,-0.58976763,0.76953125,0.763860762,0.6792397,0.77841747,0.321289063,0.317968756,0.37971517,0.32259354,0.00106422522,0.00106422522,0.012717958,-0.004256901,-0.003116277,-0.2011903,0.0,0.00116011431,0.06974805
327,-0.6035156,-0.599511564,-0.5427129,-0.5933723,0.759277344,0.7612934,0.682595,0.76857024,0.313964844,0.309114575,0.37999418,0.3144431,0.00106422522,0.00106422522,0.012536605,-0.00212845043,-0.002102984,-0.20094803,-0.00106422522,-0.00106422522,0.06930204
328,-0.5932617,-0.5942057,-0.53820425,-0.5822841,0.7607422,0.7643439,0.6801804,0.7705914,0.295410156,0.306488723,0.38008466,0.31407017,0.0,0.00106412824,0.012329272,-0.00106422522,-0.00176521984,-0.20049582,0.0,-0.000354741729,0.06922235
329,-0.58984375,-0.59276253,-0.5381849,-0.5766015,0.7709961,0.763244867,0.68062973,0.780826,0.3149414,0.310984522,0.38426876,0.31892613,0.00106422522,0.00106422522,0.012246384,-0.00212845043,-0.00165263179,-0.20028827,0.0,0.000575135753,0.06929861
330,-0.5942383,-0.593746364,-0.5367943,-0.5840049,0.754394531,0.7594605,0.67797554,0.761597,0.311523438,0.306949258,0.38489103,0.31572205,0.0,0.00106425909,0.012298053,-0.00106422522,-0.0012603607,-0.20001282,0.00106422522,0.00106422522,0.06932996
331,-0.5942383,-0.595701933,-0.5367829,-0.58530086,0.7607422,0.761617,0.6775414,0.7695971,0.298339844,0.304790378,0.38451418,0.30786258,0.00106422522,0.00106422522,0.012310774,-0.00106422522,-0.0011296036,-0.1998894,-0.00106422522,-0.00106422522,0.06920825
332,-0.5991211,-0.596353769,-0.53889287,-0.58574814,0.764648438,0.761522055,0.6753999,0.77991974,0.309082031,0.310906678,0.38290232,0.3132877,0.00106422522,0.000354741729,0.012234702,-0.00106422522,-0.00106422522,-0.19973643,0.0,-0.001799599,0.06904508
333,-0.5942383,-0.5967338,-0.5387165,-0.5846869,0.7583008,0.7587235,0.6739558,0.7619641,0.318847656,0.313433737,0.37903368,0.32058868,-0.00106422522,0.000118247233,0.012100039,0.0,-0.00143829035,-0.1996653,-0.00106422522,-0.00106422522,0.06879955
334,-0.5996094,-0.597837031,-0.5403095,-0.5862598,0.756347656,0.7571396,0.6699839,0.76601547,0.310546875,0.311183661,0.37969267,0.3170294,0.00106422522,0.00106422522,0.012140644,-0.00212845043,-0.00212845043,-0.19964088,0.0,-0.00120050809,0.06852345
335,-0.597167969,-0.59755373,-0.5401784,-0.5879509,0.756347656,0.7546585,0.6687705,0.76611817,0.3095703,0.311247438,0.38471314,0.31466982,0.0,0.00138223008,0.012331689,0.0,-0.0019299764,-0.1996633,-0.00212845043,-0.00212845043,0.06829554
336,-0.59765625,-0.596157253,-0.5399445,-0.58999324,0.7504883,0.756435633,0.67416024,0.7586139,0.312988281,0.319243938,0.3814194,0.32475537,0.00106422522,0.00106422522,0.012620829,-0.00106422522,-0.00106422522,-0.20005511,-0.00106422522,-0.00141896692,0.06821925
337,-0.5932617,-0.592599332,-0.53926194,-0.5830081,0.764160156,0.762724638,0.67573714,0.77156955,0.3334961,0.324676365,0.37873545,0.3337405,0.00106422522,0.00106422522,0.01278818,-0.00212845043,-0.00212845043,-0.20039356,-0.00106422522,-0.00106422522,0.068474896
338,-0.5883789,-0.593366444,-0.5385351,-0.57781965,0.7675781,0.766448557,0.6765474,0.781476,0.321289063,0.319162965,0.37991962,0.3282315,0.00106422522,0.00106422522,0.0129427295,-0.00319267553,-0.00212845043,-0.20061423,0.0,-0.000354741729,0.06889654
339,-0.5991211,-0.598504961,-0.54130775,-0.5915294,0.769042969,0.768991947,0.67702967,0.77434933,0.311523438,0.316023082,0.37874535,0.3223685,0.00106422522,0.00177370862,0.013143901,-0.00106422522,-0.00177370885,-0.20056328,0.0,-0.000118247241,0.06923722
340,-0.603027344,-0.5984275,-0.5421601,-0.5932455,0.7714844,0.767398357,0.67956823,0.7778211,0.3173828,0.31334886,0.38225418,0.31711578,0.00319267553,0.00319267553,0.013124205,-0.00212845043,-0.00212845043,-0.20053303,0.0,-3.94157469e-05,0.06937694
341,-0.59375,-0.5957975,-0.5408892,-0.5834629,0.76171875,0.7577526,0.6801074,0.7739252,0.306640625,0.305947036,0.3834562,0.30978554,0.0,0.002814114,0.01288374,0.0,-0.00305531546,-0.2005538,0.0,-1.31385823e-05,0.06947982
342,-0.595214844,-0.596385658,-0.54354614,-0.58267474,0.7441406,0.753723562,0.6801765,0.7536569,0.297851563,0.307386,0.3836454,0.31298217,0.00106422522,0.00106422522,0.012663859,-0.004256901,-0.004256901,-0.20065594,0.0,0.0003875718,0.069580436
343,-0.598144531,-0.5985348,-0.5417287,-0.58693516,0.759277344,0.7566123,0.68070185,0.7665578,0.318359375,0.314050555,0.38003758,0.3231859,0.00106422522,0.00106422522,0.012581401,-0.00106422522,-0.00248319213,-0.20073368,0.00106422522,0.00106422522,0.06927989
344,-0.6010742,-0.6003905,-0.5410883,-0.5939458,0.756835938,0.7611559,0.67647815,0.77447283,0.31640625,0.308785081,0.38176855,0.32001367,0.00106422522,0.000354741729,0.012363363,-0.00212845043,-0.00260143937,-0.20094894,-0.00106422522,-0.000709483458,0.06869324
345,-0.6015625,-0.597265542,-0.5433488,-0.58924824,0.770019531,0.762995958,0.6744959,0.7717217,0.295898438,0.304588526,0.38335338,0.30719465,-0.00106422522,0.000118247233,0.012121004,-0.00319267553,-0.002995597,-0.2010944,-0.00212845043,-0.00130071968,0.06824722
346,-0.58984375,-0.5949218,-0.54065835,-0.5777261,0.7578125,0.7627955,0.6801393,0.7646309,0.309082031,0.311490446,0.38026166,0.3117144,0.00106422522,0.00106422522,0.011996288,-0.00319267553,-0.0024174992,-0.20073621,-0.00106422522,-0.00114305678,0.0681565
347,-0.59765625,-0.599674463,-0.5411238,-0.5860191,0.7675781,0.7653329,0.67792016,0.77972645,0.320800781,0.316232473,0.38403702,0.32333958,0.0,0.000354741729,0.011991872,-0.00106422522,-0.00106422522,-0.200298,-0.00106422522,-0.00106422522,0.068580575
348,-0.6064453,-0.6014214,-0.5438069,-0.5967852,0.765625,0.7608076,0.684756,0.77528244,0.31640625,0.316511065,0.38015112,0.32360595,0.0,0.0002967481,0.012086407,0.0,-0.000671749352,-0.19969495,0.0,-0.000268141885,0.069199644
349,-0.598144531,-0.5982602,-0.54166543,-0.5884432,0.751464844,0.7589736,0.682781,0.75367934,0.316894531,0.311721116,0.38056788,0.31885374,0.00106422522,0.00106422522,0.012191473,-0.00106422522,-0.00106422522,-0.1995119,0.00106422522,0.00106422522,0.069641724
350,-0.595214844,-0.5957417,-0.5416172,-0.5869247,0.764648438,0.7624313,0.6850224,0.77163965,0.3017578,0.3058927,0.38232723,0.31214678,0.0,0.001301066,0.012303149,0.0,-0.001594032,-0.1997141,0.00106422522,0.000354741729,0.06974057
351,-0.59375,-0.5924608,-0.5393221,-0.5829229,0.7636719,0.765374243,0.6864119,0.77782595,0.304199219,0.309158236,0.38107935,0.3126123,0.00106422522,0.00106422522,0.012395745,-0.00212845043,-0.00212845043,-0.19998458,-0.00106422522,0.000118247233,0.06961243
352,-0.5878906,-0.5920182,-0.53486115,-0.57695657,0.770019531,0.7647276,0.67951155,0.7783253,0.3173828,0.313990235,0.38174033,0.31808522,0.00106422522,0.00106422522,0.01244857,-0.00212845043,-0.00212845043,-0.19999805,0.00106422522,0.00106422522,0.06944773
353,-0.5957031,-0.5965907,-0.53800875,-0.5863566,0.758789063,0.762233436,0.68094563,0.76694065,0.3154297,0.312182933,0.383125,0.3193543,0.0,0.00108636788,0.012400212,0.0,-0.001698058,-0.19980443,0.0,0.00058934046,0.069365814
354,-0.6020508,-0.5979521,-0.5393824,-0.5937714,0.7631836,0.764657259,0.681263,0.77388185,0.3071289,0.311254978,0.38346407,0.31815597,0.00106422522,0.00106422522,0.0123108765,-0.00106422522,-0.00106422522,-0.19948843,-0.00106422522,-0.00106422522,0.069387406
355,-0.595214844,-0.596290052,-0.5365952,-0.5869959,0.7685547,0.764488637,0.6813542,0.7798445,0.314453125,0.3112712,0.3836515,0.31621885,0.0,0.00105649931,0.012382988,0.0,-0.0008894868,-0.1993804,0.00106422522,0.00106422522,0.069609575
356,-0.5957031,-0.592806339,-0.53962696,-0.5806391,0.7602539,0.7621538,0.6784402,0.7650038,0.308105469,0.311927646,0.3841701,0.31700853,0.00106422522,0.00106422522,0.012700314,-0.00106422522,-0.00106422522,-0.19964059,0.0,0.00229304237,0.06991058
357,-0.5864258,-0.5922961,-0.5372124,-0.5768979,0.76171875,0.7633286,0.6795582,0.774092,0.31640625,0.317192048,0.38173103,0.32426554,0.00106422522,0.00141896692,0.012853951,-0.00106422522,-0.00177370862,-0.19991076,0.00212845043,0.00212845043,0.069803946
358,-0.59765625,-0.59538126,-0.5355492,-0.58561397,0.7661133,0.7617671,0.67795193,0.77740145,0.3232422,0.31552887,0.3831499,0.323921,0.00212845043,0.0008277308,0.012627711,-0.00319267553,-0.00319267553,-0.2000873,-0.00106422522,0.0008460084,0.069357336
359,-0.5961914,-0.5960841,-0.5403365,-0.5870469,0.7558594,0.7588052,0.6784658,0.7611294,0.306152344,0.308789581,0.38098297,0.31245866,-0.00106422522,0.000275910279,0.012305631,0.0,-0.00281906361,-0.20004325,-0.00106422522,-0.00106422522,0.069191255
360,-0.5966797,-0.595992863,-0.53908044,-0.58364177,0.758789063,0.7610731,0.67833096,0.77071023,0.3046875,0.312402517,0.38144118,0.31496656,0.00106422522,0.00106422522,0.012158339,-0.00106422522,-0.00106422522,-0.2001611,0.0,-0.000805756368,0.06942961
361,-0.595214844,-0.596613467,-0.5394831,-0.5827298,0.765625,0.7619918,0.6793027,0.77533585,0.323730469,0.320605516,0.38100037,0.32718316,0.0,0.00135851756,0.01230468,-0.00212845043,-0.00177370885,-0.20034787,0.00106422522,0.00106422522,0.06985148
362,-0.5986328,-0.599587262,-0.53959465,-0.5867538,0.759277344,0.7611587,0.6826724,0.7669783,0.3256836,0.320084661,0.37869698,0.32742316,0.00106422522,0.00106422522,0.0126201995,-0.00212845043,-0.0020102032,-0.20062669,0.00106422522,0.00106422522,0.07020946
363,-0.6035156,-0.600415766,-0.5411458,-0.5935625,0.762207031,0.759904444,0.6774796,0.77291363,0.313964844,0.314539939,0.38237897,0.32129726,0.00106422522,0.00106422522,0.012726313,-0.00212845043,-0.00244377647,-0.20071027,0.00106422522,0.00106422522,0.07020546
364,-0.598144531,-0.5984133,-0.5384512,-0.5894945,0.756347656,0.7573705,0.6869571,0.76515245,0.3095703,0.3151331,0.38238207,0.3215503,0.00106422522,0.00106422522,0.012505088,-0.00319267553,-0.00152407552,-0.20030712,0.00106422522,0.00106422522,0.06987248
365,-0.5966797,-0.59562993,-0.5412792,-0.5838262,0.7558594,0.759781063,0.67701185,0.7606686,0.321289063,0.31402874,0.38407385,0.32189023,0.0,0.000354741729,0.012323445,0.00106422522,0.00106422522,-0.19988486,0.0,0.000267727126,0.06931132
366,-0.5917969,-0.5929118,-0.5386019,-0.5794958,0.7661133,0.7635143,0.67707837,0.77409405,0.305664063,0.308126777,0.38439515,0.31368878,0.0,0.000776083441,0.012494093,0.0,0.000651920855,-0.1997682,-0.00106422522,-0.00106422522,0.06885557
367,-0.5913086,-0.5934706,-0.5344899,-0.57906044,0.764648438,0.7632938,0.6752461,0.77659863,0.3046875,0.3055084,0.38107625,0.30823913,0.00212845043,0.00212845043,0.012767446,-0.00212845043,-0.00212845043,-0.19999588,-0.00106422522,-0.000354741729,0.06882991
368,-0.5961914,-0.5939824,-0.5406876,-0.59362113,0.76171875,0.75947684,0.7000941,0.7526735,0.303710938,0.3075653,0.38116607,0.31188834,0.00106422522,0.00141896692,0.013096244,-0.00212845043,-0.00212845043,-0.19999605,0.00106422522,-0.000118247233,0.069106355
369,-0.592285156,-0.5908978,-0.5414741,-0.5825125,0.753417969,0.756576955,0.6994241,0.77994883,0.313476563,0.311994433,0.38661203,0.32159963,0.00106422522,0.00118247245,0.012934125,-0.00212845043,-0.00212845043,-0.19968793,-0.00106422522,-3.94157432e-05,0.06966761
370,-0.5864258,-0.584498465,-0.54746336,-0.5585678,0.756835938,0.748448849,0.71052027,0.7637313,0.3149414,0.3059838,0.38974082,0.32206094,0.00106422522,3.94157432e-05,0.010127872,-0.00212845043,-0.0005911895,-0.19750614,0.00106422522,0.00105108658,0.07024023
371,-0.5761719,-0.601733863,-0.5629211,-0.5582832,0.7319336,0.7581093,0.7169798,0.7107779,0.291015625,0.310165167,0.38268918,0.31383392,-0.00212845043,-0.0056627295,0.0068042823,0.004256901,0.004256901,-0.19572692,0.00212845043,0.00247881259,0.070225626
372,-0.64453125,-0.628800631,-0.57101655,-0.6429983,0.7939453,0.7958346,0.68271816,0.79801273,0.3334961,0.331415743,0.3820898,0.3333678,-0.0148991523,-0.007563444,0.004643727,0.0127707021,0.0127707021,-0.19578306,0.004256901,-0.00130217953,0.069506
373,-0.6401367,-0.62756896,-0.566512,-0.6371216,0.8354492,0.801899254,0.6916894,0.85087025,0.350585938,0.326943278,0.38853726,0.3447064,-0.00212845043,-0.00145692274,0.0063715116,-0.00212845043,-0.00212845043,-0.1971249,-0.0106422519,0.00027542343,0.069152005
374,-0.613769531,-0.605022967,-0.57184595,-0.59632534,0.774414063,0.7690901,0.6843776,0.76239127,0.298828125,0.310315728,0.38489565,0.3219851,0.005321126,0.00270703458,0.012630585,0.0,-0.0108665545,-0.20032822,0.0127707021,0.001156033,0.06938996
375,-0.573730469,-0.588393033,-0.54298276,-0.5599467,0.730957031,0.7480626,0.67624223,0.7264213,0.305175781,0.301518,0.38013193,0.30706254,0.004256901,0.003385537,0.01507536,-0.0106422519,-0.0106422519,-0.20199238,-0.009578027,-0.00138836436,0.06931642
376,-0.5864258,-0.5919643,-0.52469313,-0.5757524,0.7441406,0.7540743,0.6759583,0.7614656,0.2890625,0.297120571,0.3884516,0.30201527,0.00319267553,0.00077377056,0.013141017,-0.00319267553,-0.00319267553,-0.20158316,0.004256901,-0.000462788157,0.06888269
377,-0.6010742,-0.5983631,-0.5366405,-0.5974645,0.770019531,0.760961,0.6782125,0.7712725,0.30078125,0.2984217,0.3795711,0.2991652,-0.004256901,-0.004256901,0.0113237845,0.0,0.00151586125,-0.20033173,-0.004256901,0.0009099624,0.06949152
378,-0.6020508,-0.5970781,-0.5321639,-0.5912851,0.758789063,0.7616289,0.670901,0.77121085,0.297363281,0.3084583,0.38373405,0.3125854,0.0,-0.005300796,0.009955264,0.00319267553,0.00319267553,-0.19881494,0.007449576,0.00349599612,0.07102806
379,-0.5908203,-0.5940456,-0.5388793,-0.57931644,0.7651367,0.7659206,0.67831945,0.769889,0.329589844,0.32449913,0.38365266,0.33394143,-0.00319267553,-0.00319267553,0.009794534,0.00106422522,0.00106422522,-0.19852462,0.00212845043,0.002584299,0.07137625
380,-0.5942383,-0.5940113,-0.5490763,-0.5831073,0.7709961,0.769467056,0.69080496,0.77953786,0.335449219,0.322847366,0.3780673,0.3344418,-0.00106422522,-0.00177370862,0.010483449,0.0,-0.001295615,-0.19910987,0.00212845043,-0.000202792231,0.07025679
381,-0.59375,-0.5931861,-0.5356202,-0.583494,0.7714844,0.7595815,0.6869984,0.77686924,0.30859375,0.31122908,0.3857325,0.318751,-0.00106422522,-0.000236494467,0.010974348,-0.00319267553,-0.00319267553,-0.19965167,-0.005321126,-0.00113182259,0.06947645
382,-0.5917969,-0.592911,-0.53322315,-0.5795008,0.737792969,0.7489621,0.68089885,0.73738277,0.3022461,0.309309453,0.38047197,0.31277686,0.00212845043,-0.000433573179,0.010675177,-0.00212845043,-0.00106422522,-0.19918475,0.00212845043,0.0010416928,0.06980558
383,-0.59375,-0.595748961,-0.54577935,-0.5814954,0.7495117,0.7533975,0.6796511,0.75573605,0.314453125,0.3101344,0.386152,0.31530514,-0.00319267553,-0.0022729747,0.009847096,0.00212845043,0.00106422522,-0.19841194,0.00212845043,0.000701972749,0.07007374
384,-0.600585938,-0.600764,-0.5414663,-0.5894075,0.76171875,0.7612236,0.67768323,0.78267926,0.306640625,0.3136646,0.38284528,0.3205939,-0.00319267553,-0.00253136666,0.009152605,0.00212845043,0.00212845043,-0.19746177,-0.00106422522,0.000588732655,0.06979936
385,-0.605957031,-0.602435648,-0.54438835,-0.5967069,0.7685547,0.7680641,0.6816009,0.7629274,0.32421875,0.318910331,0.38226706,0.32686955,-0.00212845043,-0.00190801406,0.009498409,0.00319267553,0.00212845043,-0.19721468,0.00212845043,-0.000158497525,0.06905081
386,-0.600585938,-0.598923862,-0.5419607,-0.588643,0.774414063,0.770669758,0.67802805,0.77890086,0.318847656,0.318543047,0.38491565,0.32514262,-0.00106422522,-0.000636004668,0.010918332,0.00106422522,0.0007094836,-0.1976553,-0.00319267553,-0.00147179945,0.068362065
387,-0.59375,-0.596613944,-0.5385711,-0.5816229,0.76953125,0.762912035,0.67954636,0.78137296,0.3178711,0.312072963,0.3863837,0.31938818,0.00106422522,0.00106422522,0.01157076,-0.00106422522,-0.00106422522,-0.19815953,-0.00106422522,-0.000490599836,0.068403766
388,-0.597167969,-0.5973088,-0.5371275,-0.5875049,0.748535156,0.755117834,0.67533207,0.7550049,0.2998047,0.3035686,0.38769343,0.31122378,0.0,0.0003502858,0.011515253,0.0,-0.000354741729,-0.19866154,0.00106422522,0.00106422522,0.069045976
389,-0.598144531,-0.5986798,-0.539759,-0.58949924,0.75390625,0.755937755,0.6726056,0.7608788,0.298828125,0.307895273,0.38699278,0.3105929,-0.00212845043,-0.00212845043,0.011429142,0.0,-0.000118247241,-0.1987948,0.0,0.00146661082,0.069663145
390,-0.600585938,-0.5976719,-0.54007214,-0.58742,0.758789063,0.763535261,0.6786269,0.77657527,0.321289063,0.314871341,0.38829282,0.31925967,0.0,-0.00167547469,0.011693603,0.0,-0.000485575,-0.19877028,0.00106422522,0.00106422522,0.06989944
391,-0.59375,-0.5992891,-0.5381508,-0.5864842,0.7758789,0.7701368,0.67921364,0.77417666,0.3154297,0.314267,0.3834931,0.32076594,0.00106422522,0.00106422522,0.012051892,-0.00106422522,-0.00106422522,-0.19866619,0.0,0.0009238267,0.069952525
392,-0.6064453,-0.598688841,-0.54479235,-0.5891715,0.7709961,0.768431,0.67714036,0.7814161,0.3125,0.313740045,0.38421717,0.31904215,0.0,0.00188090175,0.011989549,0.00106422522,-0.000354741729,-0.1984962,0.00106422522,0.00106422522,0.069962695
393,-0.590332031,-0.596698344,-0.5381134,-0.58207417,0.764160156,0.7618403,0.68029934,0.7741015,0.314453125,0.320563078,0.38081402,0.32886112,0.00106422522,0.00106422522,0.011746114,-0.00106422522,0.00023649451,-0.198423,0.0,0.00150607841,0.07013621
394,-0.6010742,-0.59815073,-0.54051155,-0.59201604,0.7529297,0.757690251,0.67851406,0.7612819,0.3334961,0.318280131,0.37932497,0.33321846,-0.00212845043,0.000849255943,0.011423421,0.00212845043,0.000433573237,-0.1986094,0.00212845043,0.00212845043,0.07042541
395,-0.5966797,-0.5927755,-0.5364484,-0.5850237,0.7583008,0.7566324,0.6782541,0.76707363,0.30078125,0.311822534,0.3757718,0.32041863,0.00106422522,0.00106422522,0.011496366,-0.00106422522,-0.0005649591,-0.19886169,0.00106422522,0.00141896692,0.07044931
396,-0.5834961,-0.5934252,-0.53582525,-0.57478535,0.75390625,0.758558452,0.6749208,0.7675395,0.31640625,0.3121114,0.38116178,0.31550583,0.00106422522,0.00106422522,0.011508596,-0.00106422522,-0.00106422522,-0.19898456,0.00106422522,0.00118247245,0.07017978
397,-0.6040039,-0.596896946,-0.54015505,-0.589591,0.7651367,0.7616419,0.6746234,0.7693458,0.308105469,0.310091823,0.38543847,0.31680787,-0.00106422522,-0.000709483458,0.011011452,0.0,-0.000354741729,-0.198897,0.00106422522,0.000394157483,0.06964738
398,-0.5932617,-0.599030733,-0.5419655,-0.58473104,0.761230469,0.762669742,0.6754533,0.7748082,0.3100586,0.3103952,0.38277557,0.31458467,-0.00212845043,-0.00130071968,0.010340663,0.0,0.000424459082,-0.19875193,-0.00106422522,-0.00057809765,0.069130525
399,-0.6069336,-0.6013696,-0.5473513,-0.59319985,0.7651367,0.762849569,0.67469996,0.77104115,0.311035156,0.3077294,0.3828717,0.3140823,-0.00106422522,-0.00114305678,0.010398442,0.00106422522,0.00106422522,-0.19869702,-0.00106422522,-0.000192699212,0.06928199
400,-0.598144531,-0.599219561,-0.5429887,-0.5913029,0.7607422,0.7617702,0.6829927,0.76863045,0.3017578,0.302446246,0.38001898,0.30816838,-0.00106422522,-0.000381018937,0.011293635,0.00106422522,-0.0003547417,-0.19933358,0.00106422522,0.0009999921,0.069962114
401,-0.598144531,-0.59687525,-0.5422636,-0.5840566,0.76171875,0.758969,0.6802274,0.7713357,0.297851563,0.30182454,0.38259077,0.3028313,0.00106422522,0.000582477136,0.011881883,-0.00319267553,-0.00189195585,-0.1999114,0.00212845043,0.00212845043,0.07008807
402,-0.5932617,-0.596093833,-0.5368388,-0.58197224,0.753417969,0.7557566,0.68227994,0.7590754,0.305175781,0.308453232,0.3825691,0.3100125,0.00106422522,0.00106422522,0.01220229,-0.00212845043,-0.002049619,-0.2005585,0.0,0.0004465538,0.06946735
403,-0.598144531,-0.597623765,-0.53878266,-0.58630085,0.7548828,0.7600569,0.6817863,0.76053786,0.318359375,0.315382838,0.3864277,0.32059726,0.0,0.000354741729,0.012244901,-0.00212845043,-0.00174743158,-0.2007698,-0.00319267553,-0.00319267553,0.069262825
404,-0.5986328,-0.598296463,-0.53781784,-0.58878964,0.76953125,0.7652338,0.68153584,0.7740419,0.319335938,0.316390634,0.3836273,0.3218383,0.0,0.000356824661,0.012292496,-0.00106422522,-0.002001444,-0.20110048,0.00106422522,7.761022e-11,0.06975496
405,-0.5986328,-0.5965676,-0.53778714,-0.587854,0.7661133,0.766145647,0.68211097,0.78342587,0.314453125,0.311029941,0.3821017,0.31608102,0.00106422522,0.00106422522,0.012643145,-0.00319267553,-0.00315034017,-0.20128833,0.00212845043,0.00106422522,0.07024887
406,-0.592773438,-0.5930616,-0.53705883,-0.5801637,0.767089844,0.760590255,0.67950195,0.7715745,0.3022461,0.30794096,0.38300872,0.31216145,0.00319267553,0.00319267553,0.012944101,-0.004256901,-0.004256901,-0.20103523,0.00106422522,0.00106422522,0.07036814
407,-0.58984375,-0.5936833,-0.533162,-0.57714564,0.748535156,0.756948054,0.6792315,0.7547733,0.310546875,0.314072758,0.3844943,0.31936422,0.0,0.00305532967,0.012708346,0.0,-0.00374392234,-0.20060891,0.0,0.00145849516,0.07034939
408,-0.598144531,-0.595029831,-0.5365393,-0.58786845,0.76171875,0.7609423,0.67653805,0.77423006,0.323730469,0.31595394,0.38361076,0.3263133,0.00106422522,0.00106422522,0.011797082,-0.00212845043,-0.00212845043,-0.19977935,0.00212845043,0.00212845043,0.07035289
409,-0.5932617,-0.59401387,-0.53478765,-0.5808259,0.764160156,0.7652034,0.675656,0.7722153,0.3100586,0.315116167,0.387001,0.3245786,-0.00106422522,-0.000354741729,0.011226497,0.00106422522,0.00106422522,-0.19936405,0.00106422522,0.00106422522,0.07051047
410,-0.59375,-0.5957911,-0.53560156,-0.58625394,0.7705078,0.769879043,0.6807764,0.77780306,0.319335938,0.3132093,0.39018738,0.32330385,-0.00106422522,-0.00106422522,0.011149106,0.0,0.000818814442,-0.19934307,0.0,0.00144664361,0.070760325
411,-0.5996094,-0.5950814,-0.5410501,-0.5852231,0.7739258,0.7689962,0.6809039,0.7850553,0.305175781,0.3158289,0.38963097,0.32075354,0.0,-0.0004309618,0.011347114,-0.00212845043,-0.00212845043,-0.19959112,0.00319267553,0.00319267553,0.07060028
412,-0.58984375,-0.5969607,-0.5386676,-0.5813519,0.7631836,0.762517,0.6823431,0.76441354,0.329101563,0.324026316,0.39191115,0.3264172,0.00106422522,0.00106422522,0.011790737,-0.00106422522,-0.00106422522,-0.19994119,0.00106422522,0.000709483458,0.07004189
413,-0.605957031,-0.5988893,-0.540767,-0.5953659,0.7553711,0.758566856,0.6847172,0.76759,0.327148438,0.322689772,0.38780054,0.33396006,-0.00106422522,0.000354741729,0.01197581,0.0,-0.0008657425,-0.20007253,-0.00212845043,-0.00011824727,0.069688074
414,-0.59375,-0.5930217,-0.54421294,-0.5800795,0.7578125,0.755948067,0.68349063,0.76071537,0.316894531,0.312315851,0.3893596,0.3231234,0.00106422522,0.00106422522,0.012019853,-0.00212845043,-0.00212845043,-0.20035602,0.00106422522,0.000670067733,0.06980115
415,-0.5864258,-0.5952976,-0.5368703,-0.57122904,0.751464844,0.758330345,0.68529046,0.7610951,0.297363281,0.3088579,0.38597688,0.3112371,0.0,0.000354741729,0.012111748,-0.00212845043,-0.00177370862,-0.20052971,0.00106422522,0.0009328394,0.06993709
416,-0.6064453,-0.597846568,-0.5395996,-0.5946055,0.7675781,0.7609148,0.6793321,0.77117884,0.316894531,0.312913567,0.38897967,0.31554237,0.0,0.000685878,0.012450258,-0.00106422522,-0.0027196866,-0.20106035,0.00106422522,0.00031094646,0.06986314
417,-0.5917969,-0.594952762,-0.54037803,-0.5826447,0.756835938,0.761450768,0.67772985,0.77028793,0.312988281,0.3119868,0.38535672,0.3209621,0.00212845043,0.00212845043,0.012650728,-0.005321126,-0.00338975433,-0.20137684,-0.00106422522,0.000103648832,0.06973369
418,-0.595214844,-0.59415096,-0.5379742,-0.5781195,0.766601563,0.762605965,0.6782337,0.77115935,0.3100586,0.306957841,0.38660866,0.31481212,0.00106422522,0.0007094836,0.012533202,-0.00212845043,-0.00212845043,-0.2012568,0.00106422522,0.00106422522,0.06972556
419,-0.592285156,-0.595348537,-0.5385292,-0.5816,0.7597656,0.764293134,0.67669636,0.7733677,0.298828125,0.3069091,0.39244756,0.307389,-0.00106422522,0.000236494525,0.012276822,0.0,-0.00167720148,-0.20096032,0.0,0.00138625875,0.0697532
420,-0.5996094,-0.5970498,-0.53723574,-0.58990604,0.7705078,0.7642045,0.6809864,0.7769856,0.3149414,0.316170216,0.3887292,0.31671548,0.00106422522,0.00106422522,0.012092952,-0.00212845043,-0.00212845043,-0.2003767,0.00106422522,0.00106422522,0.069743074
421,-0.5961914,-0.5948499,-0.535903,-0.5856735,0.7578125,0.7610825,0.68062377,0.76950204,0.326660156,0.3223497,0.39100978,0.32927495,0.0,0.00133892428,0.01210972,-0.00212845043,-0.00177370862,-0.20009105,0.0,0.000354741729,0.06963638
422,-0.5913086,-0.592489,-0.5351382,-0.57889706,0.761230469,0.7600418,0.6816872,0.7730559,0.32421875,0.321317077,0.39193872,0.3269491,0.00106422522,0.00106422522,0.011829785,-0.00106422522,-0.000236494467,-0.19948591,0.0,0.000118247241,0.069520585
423,-0.5913086,-0.59414345,-0.5440989,-0.57967234,0.7578125,0.7596949,0.6818872,0.7671812,0.3173828,0.314950734,0.3993106,0.32169074,-0.00106422522,-0.00106422522,0.011493531,0.00212845043,0.00212845043,-0.19910581,0.0,3.94157469e-05,0.069365524
424,-0.5986328,-0.597950161,-0.54133165,-0.5887384,0.761230469,0.76316,0.6819893,0.77186835,0.306152344,0.307294756,0.39421386,0.3157022,0.0,-0.00174477394,0.011417133,0.0,0.00160936429,-0.1992475,0.0,-0.000387871551,0.0691988
425,-0.6010742,-0.601986,-0.54263425,-0.59329814,0.7685547,0.765128851,0.68182415,0.7780889,0.30078125,0.311904222,0.3929778,0.31597593,-0.00106422522,-0.00106422522,0.011760669,-0.00106422522,-0.00106422522,-0.19966328,-0.00106422522,-0.00106422522,0.069088355
426,-0.6069336,-0.601378143,-0.5468361,-0.5945374,0.7636719,0.7649713,0.68833154,0.7731254,0.327636719,0.317835242,0.41531911,0.32515734,0.00106422522,0.000709483458,0.012592573,-0.00319267553,-0.00212845043,-0.20010217,0.0,-0.000354741729,0.06906737
427,-0.595214844,-0.59857136,-0.53701717,-0.58657277,0.7661133,0.764267743,0.68665314,0.7756144,0.313964844,0.31655705,0.43134618,0.32317224,0.00212845043,0.00212845043,0.012868187,-0.00212845043,-0.00212845043,-0.20017105,0.0,-0.000330906332,0.06917344
428,-0.5991211,-0.5966592,-0.5412034,-0.58697385,0.76171875,0.764033258,0.63199586,0.77418065,0.3178711,0.320362777,0.43910235,0.32279068,0.0,0.00206575845,0.012615051,0.0,-0.002090812,-0.20014231,-0.00106422522,-0.00106422522,0.06931354
429,-0.592285156,-0.5942314,-0.53640705,-0.5830301,0.7661133,0.7665593,0.6488663,0.77158713,0.326660156,0.324398279,0.3954736,0.33288443,0.00106422522,0.00106422522,0.012441983,-0.00212845043,-0.00212845043,-0.20016757,0.00106422522,-0.000354741729,0.069443464
430,-0.59375,-0.5932594,-0.5024736,-0.5788396,0.76953125,0.769679964,0.70080996,0.7789131,0.326171875,0.3189075,0.48089448,0.330505,0.0,0.000761190546,0.012364571,-0.00106422522,-0.00177370885,-0.20042051,-0.00106422522,-0.000118247233,0.069527246
431,-0.5917969,-0.5971672,-0.4861996,-0.5822745,0.7729492,0.764698,0.5995063,0.77997607,0.306152344,0.3147986,0.52955204,0.31943437,0.00106422522,0.00106422522,0.012524442,-0.00212845043,-0.002364945,-0.20059732,0.00106422522,0.00106422522,0.06946478
432,-0.6064453,-0.5981443,-0.54616,-0.59483397,0.751464844,0.7579918,0.64754885,0.76075643,0.319335938,0.317335218,0.38371366,0.31891575,0.00212845043,0.00212845043,0.012768464,-0.00319267553,-0.00319267553,-0.20031227,0.0,0.0006710465,0.06931994
433,-0.5908203,-0.5934244,-0.54222065,-0.57542676,0.7578125,0.758686066,0.50184417,0.760803,0.3178711,0.3176925,0.34360012,0.3218604,0.0,0.00206036866,0.012808225,0.0,-0.00262032053,-0.19974929,-0.00106422522,-0.00106422522,0.0681695
434,-0.5913086,-0.594292462,-0.41409153,-0.6070413,0.7602539,0.7594058,0.7677308,0.7339225,0.3178711,0.3160212,0.29731843,0.34049916,0.00106422522,0.00106422522,0.041309845,-0.00106422522,-0.00106422522,-0.16617581,0.0,-0.00157685683,0.07377059
435,-0.598144531,-0.58188653,-0.4482668,-0.5761943,0.759277344,0.741091,0.73079395,0.7914468,0.3125,0.371453673,-0.3168672,0.4562994,0.00106422522,0.0113517353,0.10246468,-0.00212845043,0.0042569004,-0.12604511,-0.00106422522,-0.00106422522,-0.18258122
436,-0.553222656,-0.5984218,-0.46604154,-0.5350002,0.704589844,0.660279036,0.7835268,0.60491985,0.485839844,0.251422048,-0.3473245,0.47440335,0.0319267549,0.290769964,0.28352085,0.0159633774,0.372124076,-0.07738477,-0.0148991523,-0.3245887,-0.6375358
437,-0.66015625,-0.63404423,-0.45134464,-0.6447356,0.53515625,0.583048761,0.7573595,0.5819461,-0.103027344,0.195135474,0.20585775,0.12527473,0.8290314,0.4197383,0.34661293,1.096152,0.511419356,-0.04687276,-0.9578027,-1.36540091,-1.7921573
438,-0.6435547,-0.6348507,-0.29224783,-0.68469846,0.553710938,0.5061986,-0.37195143,0.4152823,0.437011719,0.37901,0.45765063,0.2819091,0.139413491,0.07747821,0.13158268,0.06598196,-0.0122188525,-0.35152274,-2.8138113,-2.98586082,-3.2264664
439,-0.6269531,-0.579781,-0.63600045,-0.593193,0.381835938,0.459422976,0.4870366,0.42394313,0.5048828,0.565464258,0.5338967,0.67623293,-0.326717138,-0.2767686,-0.1789973,-0.6140579,-0.5521489,-0.6512932,-4.778371,-4.843525,-4.89324
440,-0.477539063,-0.3687161,-0.705501,-0.6801388,0.490234375,0.3401527,1.2087741,0.29844987,0.8125,0.482596159,1.5022439,0.81737864,-0.5810669,-0.6396226,-0.5519716,-1.03017,-1.077644,-1.3470181,-6.76634359,-6.62310648,-6.2037115
441,-0.048828125,-0.386577249,-0.789,-0.47851622,0.07080078,0.9087944,0.47250655,-0.044149444,0.06982422,0.281796366,0.6097001,0.5679887,-1.06103241,-0.723326147,-0.6711537,-1.65061331,-1.75086653,-1.7614261,-8.259452,-7.23652124,-6.477801
442,-0.7421875,0.0422021151,-1.0545565,-0.22573371,2.31542969,1.4235369,0.9872767,2.419024,0.29296875,-0.210592628,0.595641,0.2648869,-0.4693233,-0.5114219,-0.49684587,-2.5243423,-2.16470623,-1.8463626,-6.82700443,-6.82700443,-5.9459615
443,1.25537109,0.3622119,-0.05897417,0.79839754,1.04638672,1.15208387,1.2068937,1.2505461,-1.206543,-0.426317334,-0.2976764,-0.25540322,-0.3416163,-0.275832266,-0.2946533,-2.2189095,-1.87838137,-1.5896187,-3.05219769,-5.352179,-4.727299
444,-0.2109375,0.120900065,0.05672868,0.059721943,0.9863281,1.064692,0.16078399,1.2289562,0.1381836,-0.4220537,0.6869839,-0.3560094,0.0255414043,-0.0135461688,0.10022546,-1.25152886,-0.8414554,0.052498925,-3.25865746,-3.25865746,-3.4622447
445,0.211425781,0.245215371,-0.13275848,-0.12384001,1.05566406,0.8365054,0.14090581,0.9875646,-0.978027344,-0.8644802,-0.4717244,-0.43777466,0.209652364,0.282115936,0.5154595,0.6055441,1.89621007,1.4062846,-1.48140144,-2.38599277,-2.6477718
446,0.4033203,0.23343116,0.07152639,0.5335724,0.389160156,0.723333836,0.69022155,0.104243845,-1.19335938,-1.129306,-0.6650134,-1.1327838,0.6502416,1.31151223,1.3043369,5.92454147,5.28166962,3.6729345,-2.41791964,-2.77656341,-2.466711
447,0.0517578125,-0.02245003,0.17270343,-0.020877542,0.944335938,0.181540966,0.04326187,0.6202986,-1.33007813,-1.33007813,-2.1091328,-2.628883,3.00217915,1.9334712,1.7414148,8.024258,6.519062,4.713713,-3.525778,-2.68823266,-2.004256
448,-0.352539063,-0.331702083,0.14778367,-0.45235202,-1.12304688,-0.4240241,-0.38697043,-1.072283,-6.18505859,-1.07815588,-6.711161,-6.3434534,1.48672259,1.47139323,1.2985377,6.251259,5.61437035,3.2328691,-1.76235688,-0.9787324,-1.2303913
449,-0.6201172,-0.58273536,0.037457235,-0.8714949,-0.3305664,-0.127018452,0.42549995,-0.5375553,1.3828125,-0.410181,1.3600262,1.8375278,0.9939863,0.186096,0.39416647,4.07278967,1.58624458,1.2947693,1.5143925,1.17360389,0.09627473
450,-0.7963867,-0.416413069,-0.047408026,-0.9448498,0.373535156,0.45928812,0.2205435,0.42909908,0.4658203,0.4658203,0.8099206,0.3391004,-1.9070915,-1.63256919,-1.1481826,-4.92842674,-4.92842674,-2.437299,2.98515153,2.28303885,1.4808972
451,0.129882813,-0.0237327423,-0.017409382,0.11689712,1.13134766,0.8790075,1.6972181,0.9525426,0.249511719,0.4399414,1.126775,0.4777652,-3.176712,-2.21041155,-1.9803936,-8.908629,-7.10202837,-4.2876515,2.69036126,2.69222713,2.4716349
452,0.215332031,0.007063046,0.022364115,0.23594677,1.04638672,0.906121,1.5158454,0.9170251,0.6044922,0.500976563,1.3349549,0.48184493,-1.82195342,-1.74001348,-2.0066116,-5.86388063,-5.86388063,-4.6442294,3.10328078,3.00102735,2.834832
453,-0.170410156,-0.04858966,-0.11134681,-0.27119932,0.79296875,0.921506464,1.1984248,0.8531952,0.4584961,0.421875,-0.2619366,0.47262788,-1.18767536,-1.77477455,-1.9321522,-1.58995247,-2.71625733,-3.9215972,3.20757461,2.76198983,2.542306
454,0.017578125,0.08536595,-0.15278885,0.1155634,1.06542969,0.982624531,1.2853799,1.0964222,0.306152344,0.37516275,0.40588415,0.40092117,-2.396635,-2.19857144,-1.9893376,-0.694939,-1.83626139,-2.638246,2.07736754,1.96715128,1.9749354
455,0.287109375,0.0470100045,-0.008150762,0.33698872,0.9609375,0.9570988,0.46608672,0.9859568,0.397460938,0.344292521,0.35725108,0.37114736,-2.42430472,-1.99893034,-1.9442803,-2.09758782,-1.9235673,-2.1675205,1.06209671,1.219047,1.1700689
456,-0.231445313,-0.115352131,-0.24326979,-0.34001327,0.9277344,0.9183168,1.0045028,0.8971909,0.2602539,0.275245935,0.5693475,0.27431667,-1.37391472,-1.405592,-1.536068,-1.83685267,-1.64865553,-1.8036503,0.627892852,0.5716586,0.4788803
457,-0.1616211,-0.120319195,-0.36375165,-0.19379243,0.8701172,0.8518413,0.9577493,0.9238367,0.2211914,0.1802903,0.5439983,0.13208194,-0.8439306,-1.18156159,-1.3041693,-1.18554688,-1.32146978,-1.7310638,-0.131963924,-0.182990178,-0.2874308
458,-0.083984375,-0.17829,-0.42723086,-0.041461825,0.767089844,0.9120395,0.72154075,0.6867778,0.0444335938,0.162798584,0.47043106,0.115695365,-1.29516208,-1.610618,-1.5186877,-1.13020706,-1.286549,-1.5516506,-0.9886652,-1.050726,-0.9703069
459,-0.3305664,-0.339703441,-0.38977322,-0.35470667,1.1171875,1.15183222,0.92565215,1.1958225,0.263671875,0.348537058,0.30287582,0.29916313,-2.3551302,-2.08993173,-1.7303782,-1.40796983,-1.33202207,-1.4454036,-1.980523,-1.64646816,-1.3551556
460,-0.5102539,-0.433221459,-0.3665329,-0.5880177,1.42626953,1.33413935,1.1921353,1.5000721,0.6191406,0.5048509,0.6218595,0.5236361,-2.30404735,-1.52248251,-1.4004818,-1.30154741,-1.00485408,-1.1054534,-1.90815568,-1.401267,-1.3979342
461,-0.449707031,-0.389524341,-0.40361902,-0.4655401,1.42431641,1.34005821,1.2780634,1.395476,0.546875,0.450510174,0.54514587,0.5310623,-0.173468709,-0.09386531,-0.6331386,-0.380992621,-0.4023523,-0.85982007,-0.6491773,-0.429131657,-0.7822805
462,-0.285644531,-0.3080641,-0.38149774,-0.28352338,1.26171875,1.260651,1.2964644,1.2466747,0.2998047,0.337995559,0.3512501,0.3521055,1.41435528,0.9719212,0.7449265,0.178789824,-0.0624596067,-0.575164,0.7630494,0.6146844,0.1173245
463,-0.249023438,-0.254380733,-0.34192714,-0.22218026,1.18017578,1.17802954,1.226121,1.1750062,0.263671875,0.274449021,0.38758558,0.25941843,1.59527361,1.30341566,1.4094745,0.0361836553,-0.159523889,-0.5031378,1.51013553,1.315946,0.9845666
464,-0.206054688,-0.227046177,-0.28617623,-0.20560442,1.09326172,1.10198641,0.9104091,1.0897921,0.221679688,0.220389247,0.35404515,0.22336024,1.34305215,1.17162514,1.2174423,-0.4522957,-0.412882715,-0.56943023,1.82301784,1.67173088,1.5185909
465,-0.220703125,-0.225421652,-0.19134033,-0.2157928,1.034668,1.05124807,0.9266424,0.9761599,0.165039063,0.199276879,0.39637974,0.17162819,0.8684078,0.8885991,1.028899,-0.6268286,-0.5384857,-0.6635717,1.87622893,1.78394043,1.7749332
466,-0.228515625,-0.238226488,-0.22336279,-0.24423185,1.01708984,1.014153,0.9098154,1.0073373,0.212402344,0.223814949,0.45892155,0.19407845,0.6257644,0.7811317,0.84852093,-0.5757458,-0.5729038,-0.7511044,1.80386162,1.79722118,1.8464373
467,-0.2607422,-0.258119762,-0.23167235,-0.27068886,0.9741211,0.9840471,0.7567441,0.97655714,0.259765625,0.261453956,0.48868078,0.23210062,0.8290314,0.956380546,0.91966045,-0.6044799,-0.5928903,-0.7671227,1.80386162,1.77185,1.8230767
468,-0.275390625,-0.268982619,-0.29542032,-0.24238153,0.9638672,0.9666876,0.83343136,0.9546554,0.30078125,0.3114352,0.460043,0.2846995,1.25897837,1.27021086,1.2588589,-0.601287246,-0.5190261,-0.67445797,1.71446681,1.72259748,1.7937884
469,-0.2734375,-0.324198633,-0.36422434,-0.26048332,0.952148438,0.984664142,0.6601708,0.93483293,0.3720703,0.38457346,0.39971158,0.36243397,1.59527361,1.41242361,1.4450814,-0.362900764,-0.341156274,-0.58094525,1.68147588,1.81402147,1.9040995
470,-0.430175781,-0.397454232,-0.35634935,-0.43682802,1.03515625,1.02125525,0.82843167,1.0348375,0.470214844,0.4651052,0.4383068,0.47200292,1.37178624,1.47862911,1.591156,-0.141541958,-0.170832172,-0.36763433,2.03799129,2.14567184,2.0914497
471,-0.437988281,-0.4262673,-0.318833,-0.4346849,1.04394531,1.03882337,0.7185549,1.0390639,0.540527344,0.4895077,0.45542917,0.52727604,1.65167749,1.78732908,1.8158932,-0.0297983047,-0.01969617,-0.23669969,2.585003,2.683686,2.539921
472,-0.443359375,-0.435871631,-0.29369506,-0.43780112,1.05126953,1.02270675,0.7153982,1.0196724,0.462890625,0.448976517,0.3533827,0.45512953,2.23168015,2.248518,2.313814,0.141541958,0.143135622,0.052180097,3.3203826,3.30751514,3.0582714
473,-0.437988281,-0.414659023,-0.40716153,-0.42948008,0.978027344,0.9395351,0.7109638,0.9927174,0.39453125,0.381429672,0.34737167,0.38484836,2.72654486,2.720451,2.7147229,0.30756107,0.419126481,0.23751423,3.9184773,3.87232852,3.651886
474,-0.3701172,-0.394892842,-0.39532351,-0.34537604,0.8178711,0.8159453,0.63554,0.77563065,0.30078125,0.3208281,0.3230204,0.33141878,3.18629,3.08776927,3.1373727,0.8066827,0.85770607,0.6556585,4.390993,4.3184967,4.128863
475,-0.399902344,-0.4368067,-0.38020492,-0.37629822,0.6904297,0.722502649,0.653021,0.6466102,0.280273438,0.331552058,0.34216633,0.30086336,3.35656619,3.26341987,3.3967805,1.347309,1.24831641,0.9064169,4.69216871,4.58002758,4.4851613
476,-0.515625,-0.5080697,-0.51192236,-0.54169255,0.6611328,0.6742652,0.51795083,0.67894787,0.3935547,0.394208759,0.34392887,0.37438643,3.345924,3.41987872,3.5256102,1.53993392,1.445566,1.2605013,4.729417,4.71935129,4.6882052
477,-0.571777344,-0.5394738,-0.47299618,-0.57706547,0.639160156,0.630842268,0.6156326,0.61074656,0.457519531,0.430556566,0.34763372,0.44850972,3.6502924,3.6345036,3.6418467,1.54844761,1.60674143,1.4054626,4.84860945,4.88463068,4.834104
478,-0.5385742,-0.5670316,-0.5501415,-0.5385092,0.579101563,0.5738875,0.4854616,0.56686604,0.4399414,0.431279272,0.38790977,0.44194382,3.83333921,3.64396548,3.6215522,1.82621038,1.82400239,1.5031453,5.085932,5.03124762,4.951965
479,-0.6230469,-0.6213022,-0.6174775,-0.621737,0.51171875,0.517956,0.5678406,0.5064958,0.423339844,0.396201164,0.40809846,0.41093338,3.464053,3.386384,3.4750402,2.03905535,1.85137045,1.5022836,5.12318,4.96802139,4.8419156
480,-0.6738281,-0.6696658,-0.60809994,-0.6746331,0.468261719,0.4762002,0.3933154,0.45621526,0.333984375,0.358955055,0.3939914,0.37073758,3.05113363,2.984094,3.0362902,1.69105375,1.51994121,1.2032579,4.749637,4.608168,4.5550666
481,-0.7138672,-0.6970175,-0.63946664,-0.71700263,0.4423828,0.437379241,0.37374112,0.45002207,0.3466797,0.34019205,0.4184804,0.34558994,2.514764,2.53959823,2.6318579,1.01739919,1.02457,0.9406359,4.106845,4.12496138,4.062608
482,-0.707519531,-0.6996243,-0.6578528,-0.70163655,0.3935547,0.36844933,0.30603403,0.37463456,0.3149414,0.320265859,0.5132107,0.32415915,2.11993647,2.12963343,2.1409245,0.5363695,0.5586253,0.40318698,3.65987039,3.65845966,3.5877273
483,-0.694335938,-0.7022836,-0.67533803,-0.67688507,0.274414063,0.291436225,0.323997,0.27001938,0.305664063,0.324203223,0.43640253,0.30124286,1.72936583,1.72550333,1.7718949,0.114936315,0.15676485,0.10312856,3.19054723,3.11203361,3.0110376
484,-0.7128906,-0.724979937,-0.6931031,-0.70570916,0.231445313,0.267392784,0.27613825,0.25523272,0.3466797,0.36946097,0.38145095,0.34502366,1.31751084,1.37404621,1.427545,-0.203267008,-0.132210746,-0.2108296,2.48709416,2.49710679,2.4842017
